time,seconds_elapsed,z,y,x
1766015508286090000,0.257090087890625,-0.22538700699806213,-0.09016799926757812,-1.5353039503097534
1766015508295696400,0.2666962890625,-0.2076379954814911,-0.15578800439834595,-1.0554640293121338
1766015508305303000,0.276302978515625,-0.19797499477863312,-0.21740299463272095,-0.6992470026016235
1766015508314909700,0.28590966796875,-0.2461860030889511,-0.23989300429821014,-0.4887019991874695
1766015508324516000,0.29551611328125,-0.1695680022239685,-0.2068070024251938,-0.45770999789237976
1766015508334122500,0.30512255859375,-0.06018900126218796,-0.14793400466442108,-0.6405429840087891
1766015508343729200,0.314729248046875,0.008496999740600586,-0.16578899323940277,-0.8416720032691956
1766015508353335800,0.324335693359375,0.1405310034751892,-0.23485399782657623,-1.0078150033950806
1766015508362942500,0.3339423828125,0.28382301330566406,-0.28639501333236694,-1.0516730546951294
1766015508372548900,0.343548828125,0.3520109951496124,-0.3470599949359894,-1.0895830392837524
1766015508382155300,0.3531552734375,0.30671700835227966,-0.36129000782966614,-1.2562780380249023
1766015508391762000,0.362761962890625,0.2637690007686615,-0.34921199083328247,-1.35406494140625
1766015508401368300,0.372368408203125,0.21175700426101685,-0.3009819984436035,-1.2809820175170898
1766015508410975000,0.38197509765625,0.15910999476909637,-0.2741290032863617,-1.152282953262329
1766015508420581600,0.39158154296875,0.11159300059080124,-0.23517300188541412,-1.0774450302124023
1766015508430188000,0.40118798828125,0.20935599505901337,-0.1365630030632019,-1.0223820209503174
1766015508439794400,0.41079443359375,0.393189013004303,-0.03952699899673462,-0.9702000021934509
1766015508449401000,0.420401123046875,0.5574899911880493,-0.009789000265300274,-0.949862003326416
1766015508459007500,0.430007568359375,0.6641209721565247,-0.09141500294208527,-0.8109840154647827
1766015508468614100,0.4396142578125,0.7236350178718567,-0.15322500467300415,-0.606132984161377
1766015508478220500,0.449220458984375,0.7677059769630432,-0.17284299433231354,-0.5105360150337219
1766015508487827200,0.4588271484375,0.810018002986908,-0.16045600175857544,-0.5432440042495728
1766015508497433600,0.46843359375,0.8214619755744934,-0.10424400120973587,-0.6045359969139099
1766015508507040300,0.478040283203125,0.7982879877090454,-0.03390299901366234,-0.7204200029373169
1766015508516646700,0.487646728515625,0.7559080123901367,0.005669000092893839,-0.84449702501297
1766015508526253300,0.49725341796875,0.658374011516571,0.0010489999549463391,-0.8452249765396118
1766015508535859700,0.506859619140625,0.5601189732551575,-0.0034719998948276043,-0.7865039706230164
1766015508545466400,0.51646630859375,0.48309800028800964,-0.02663400024175644,-0.7113329768180847
1766015508555072800,0.52607275390625,0.4010159969329834,-0.03189300000667572,-0.5929409861564636
1766015508564679400,0.535679443359375,0.332520991563797,-0.04464099928736687,-0.4911080002784729
1766015508574286000,0.5452861328125,0.3101170063018799,-0.027960000559687614,-0.4000590145587921
1766015508583892500,0.554892578125,0.31966400146484375,-0.02568100020289421,-0.3352780044078827
1766015508593499100,0.5644990234375,0.2947640120983124,-0.005491999909281731,-0.31112799048423767
1766015508603105500,0.57410546875,0.2648569941520691,0.027543000876903534,-0.3380660116672516
1766015508612712200,0.583712158203125,0.25400400161743164,0.06041700020432472,-0.38896098732948303
1766015508622318600,0.593318603515625,0.32769298553466797,0.03598799929022789,-0.45638400316238403
1766015508631925200,0.60292529296875,0.3195280134677887,0.04510999843478203,-0.4993950128555298
1766015508641532000,0.612531982421875,0.2870649993419647,0.01869099959731102,-0.4969309866428375
1766015508651138300,0.62213818359375,0.19964599609375,-0.002228999976068735,-0.4131680130958557
1766015508660744700,0.63174462890625,0.0457720011472702,-0.00493700010702014,-0.25723499059677124
1766015508670351400,0.641351318359375,-0.09030699729919434,0.0047439998015761375,-0.15505699813365936
1766015508679958000,0.6509580078125,-0.17113099992275238,0.05326100066304207,-0.11209499835968018
1766015508689564400,0.660564453125,-0.2737259864807129,0.08948799967765808,-0.11397600173950195
1766015508699171000,0.670171142578125,-0.3881419897079468,0.06867899745702744,-0.07824999839067459
1766015508708777700,0.67977783203125,-0.4723289906978607,0.013768999837338924,-0.027847999706864357
1766015508718384000,0.689384033203125,-0.43720999360084534,0.006029999814927578,-0.03201400116086006
1766015508727990800,0.69899072265625,-0.281264990568161,0.020538000389933586,-0.05084900185465813
1766015508737597200,0.70859716796875,-0.16726399958133698,0.03383199870586395,-0.05646999925374985
1766015508747203800,0.718203857421875,-0.05296799913048744,0.00184599997010082,-0.04594799876213074
1766015508756810200,0.727810302734375,0.007703999988734722,-0.04536300152540207,-0.019133999943733215
1766015508766416600,0.737416748046875,0.05323300138115883,-0.07279600203037262,0.03384700044989586
1766015508776023300,0.747023193359375,0.047867998480796814,-0.056442998349666595,0.09980399906635284
1766015508785630000,0.7566298828125,0.08333399891853333,-0.061473000794649124,0.1405639946460724
1766015508795236400,0.766236328125,0.03486400097608566,-0.08890499919652939,0.1683170050382614
1766015508804843000,0.775843017578125,-0.08113700151443481,-0.08152599632740021,0.10209400206804276
1766015508814449400,0.785449462890625,-0.2343759983778,-0.07645700126886368,0.01003200002014637
1766015508824056000,0.79505615234375,-0.3772760033607483,-0.029046999290585518,-0.10108400136232376
1766015508833662500,0.804662353515625,-0.5260949730873108,0.019336000084877014,-0.17530600726604462
1766015508843269000,0.81426904296875,-0.6276479959487915,0.0636650025844574,-0.19039799273014069
1766015508852875500,0.82387548828125,-0.6791589856147766,0.0986040011048317,-0.13316099345684052
1766015508862482000,0.83348193359375,-0.716854989528656,0.10792200267314911,-0.0423710010945797
1766015508872088800,0.8430888671875,-0.6957700252532959,0.1046300008893013,0.0009480000007897615
1766015508881695200,0.8526953125,-0.5595070123672485,0.13280999660491943,0.03515800088644028
1766015508891301600,0.862301513671875,-0.38720300793647766,0.1831810027360916,0.06485000252723694
1766015508900908000,0.871907958984375,-0.30952200293540955,0.17772099375724792,0.048523999750614166
1766015508910515000,0.881514892578125,-0.1631689965724945,0.12005800008773804,0.06176299974322319
1766015508920121300,0.891121337890625,-0.04208799824118614,0.07912600040435791,0.10267499834299088
1766015508929727700,0.900727783203125,0.06264200061559677,0.051146000623703,0.1679989993572235
1766015508939334400,0.91033447265625,0.1427209973335266,0.025414999574422836,0.20634999871253967
1766015508948941000,0.919941162109375,0.23163500428199768,0.027007000520825386,0.23696400225162506
1766015508958547500,0.92954736328125,0.35398000478744507,0.01675100065767765,0.26270198822021484
1766015508968154000,0.939154052734375,0.4196139872074127,0.029124999418854713,0.2605830132961273
1766015508977760800,0.9487607421875,0.4537160098552704,0.02418299950659275,0.24530500173568726
1766015508987367200,0.9583671875,0.5131710171699524,0.006453000009059906,0.24858899414539337
1766015508996973800,0.967973876953125,0.5433369874954224,-0.006037000101059675,0.25074198842048645
1766015509006580200,0.977580322265625,0.5161169767379761,0.001706999959424138,0.20309500396251678
1766015509016186600,0.9871865234375,0.45105698704719543,0.0587799996137619,0.0822020024061203
1766015509025793300,0.996793212890625,0.3655349910259247,0.08100499957799911,0.06374900043010712
1766015509035400000,1.00639990234375,0.2667889893054962,0.08220600336790085,0.14106899499893188
1766015509045006300,1.01600634765625,0.16376599669456482,0.049118999391794205,0.2163040041923523
1766015509054613000,1.025613037109375,0.07673200219869614,0.011676999740302563,0.2579230070114136
1766015509064219600,1.0352197265625,0.00955200009047985,0.009668000042438507,0.28637799620628357
1766015509073826000,1.044825927734375,0.006068999879062176,-0.03263299912214279,0.2840859889984131
1766015509083432700,1.0544326171875,0.04651400074362755,-0.05413300171494484,0.24942000210285187
1766015509093039000,1.0640390625,0.07918400317430496,-0.07845599949359894,0.18092399835586548
1766015509102645800,1.073645751953125,0.035300999879837036,-0.09284500032663345,0.0556039996445179
1766015509112252200,1.083252197265625,-0.04515799880027771,-0.07825399935245514,-0.030969999730587006
1766015509121858800,1.09285888671875,-0.13005800545215607,-0.008178000338375568,-0.06274399906396866
1766015509131465500,1.102465576171875,-0.23069000244140625,0.005828999914228916,0.013906000182032585
1766015509141072000,1.11207177734375,-0.22429700195789337,-0.017520999535918236,0.19912000000476837
1766015509150678300,1.12167822265625,-0.1950950026512146,-0.00019099999917671084,0.32258498668670654
1766015509160285000,1.131284912109375,-0.18950000405311584,0.005820999853312969,0.36601001024246216
1766015509169891600,1.1408916015625,-0.20012399554252625,-0.038465000689029694,0.4007279872894287
1766015509179498000,1.150498046875,-0.16720600426197052,-0.1488579958677292,0.5308690071105957
1766015509189104600,1.160104736328125,-0.05393199995160103,-0.16268399357795715,0.5897110104560852
1766015509198711300,1.169711181640625,0.09470000118017197,-0.14535799622535706,0.5223960280418396
1766015509208317700,1.179317626953125,0.20934799313545227,-0.06668700277805328,0.3584809899330139
1766015509217924000,1.188924072265625,0.25960201025009155,0.0015190000412985682,0.16837100684642792
1766015509227530800,1.19853076171875,0.25253400206565857,0.03555700182914734,0.030510999262332916
1766015509237137200,1.20813720703125,0.23740699887275696,0.06328500062227249,-0.07856199890375137
1766015509246743800,1.217743896484375,0.20755599439144135,0.09316900372505188,-0.17893899977207184
1766015509256350500,1.2273505859375,0.11087000370025635,0.11678999662399292,-0.16210299730300903
1766015509265956900,1.236956787109375,0.01701599918305874,0.08464699983596802,-0.08426400274038315
1766015509275563500,1.2465634765625,0.016923999413847923,0.060214001685380936,0.014550999738276005
1766015509285170200,1.256170166015625,0.06983699649572372,0.06287500262260437,0.0932369977235794
1766015509294776600,1.265776611328125,0.08453600108623505,0.06453300267457962,0.12640699744224548
1766015509304383200,1.27538330078125,0.05903400108218193,0.02697099931538105,0.10881999880075455
1766015509313990000,1.284989990234375,0.09568499773740768,-0.0676949992775917,0.07744999974966049
1766015509323596300,1.29459619140625,0.15856799483299255,-0.09869100153446198,0.029131000861525536
1766015509333203000,1.304202880859375,0.26733899116516113,-0.08973299711942673,-0.06638599932193756
1766015509342809300,1.313809326171875,0.38087400794029236,-0.020003000274300575,-0.09600800275802612
1766015509352415700,1.323415771484375,0.45708900690078735,0.02735299989581108,-0.06756100058555603
1766015509362022400,1.3330224609375,0.49113699793815613,0.05741100013256073,0.0007389999809674919
1766015509371628800,1.34262890625,0.518572986125946,0.06345800310373306,0.17313499748706818
1766015509381235500,1.3522353515625,0.49344900250434875,0.059957001358270645,0.3605009913444519
1766015509390842000,1.361842041015625,0.4577699899673462,0.11994799971580505,0.4668790102005005
1766015509400448500,1.371448486328125,0.37536799907684326,0.1442050039768219,0.48107099533081055
1766015509410055200,1.38105517578125,0.28723999857902527,0.16433000564575195,0.44117799401283264
1766015509419661800,1.390661865234375,0.18592500686645508,0.1583629995584488,0.35373300313949585
1766015509429268200,1.400268310546875,0.10593900084495544,0.14022299647331238,0.23446999490261078
1766015509438875000,1.409875,0.014271999709308147,0.12921999394893646,0.069923996925354
1766015509448481300,1.419481201171875,-0.07221599668264389,0.12148799747228622,-0.05316599830985069
1766015509458088000,1.429087890625,-0.13256700336933136,0.06418000161647797,-0.07510899752378464
1766015509467694300,1.4386943359375,-0.1284639984369278,-0.004792000167071819,-0.022269999608397484
1766015509477300700,1.44830078125,-0.1177619993686676,-0.0585549995303154,-0.02741299942135811
1766015509486907400,1.457907470703125,-0.136695995926857,-0.07179900258779526,-0.037845999002456665
1766015509496514000,1.46751416015625,-0.12291300296783447,-0.062369998544454575,-0.059801001101732254
1766015509506120700,1.47712060546875,-0.09695199877023697,-0.023896999657154083,-0.0793360024690628
1766015509515727000,1.48672705078125,-0.06281600147485733,0.01548099983483553,-0.0956450030207634
1766015509525333800,1.496333740234375,-0.05046800151467323,0.03953000158071518,-0.11270099878311157
1766015509534940200,1.505940185546875,-0.09538500010967255,0.06544899940490723,-0.15551699697971344
1766015509544546800,1.515546875,-0.1487489938735962,0.05312800034880638,-0.20130500197410583
1766015509554153500,1.525153564453125,-0.179190993309021,0.06092999875545502,-0.2223699986934662
1766015509563759900,1.534759765625,-0.19920000433921814,0.1029609963297844,-0.277209997177124
1766015509573366500,1.544366455078125,-0.23292399942874908,0.14252400398254395,-0.32687801122665405
1766015509582973200,1.55397314453125,-0.2629759907722473,0.15400199592113495,-0.37425801157951355
1766015509592579600,1.56357958984375,-0.2882620096206665,0.12274300307035446,-0.4164389967918396
1766015509602186000,1.57318603515625,-0.32162201404571533,0.05854500085115433,-0.43057599663734436
1766015509611792600,1.582792724609375,-0.34389999508857727,0.02275099977850914,-0.436693012714386
1766015509621399300,1.5923994140625,-0.3886910080909729,0.004805999808013439,-0.49235600233078003
1766015509631005700,1.602005615234375,-0.3736009895801544,0.024808000773191452,-0.5586640238761902
1766015509640612400,1.6116123046875,-0.3041200041770935,0.04552999883890152,-0.5574309825897217
1766015509650219000,1.621218994140625,-0.16378599405288696,0.0782490000128746,-0.4882439970970154
1766015509659825400,1.630825439453125,0.013566000387072563,0.1385210007429123,-0.3966209888458252
1766015509669431800,1.640431884765625,0.14254899322986603,0.20169800519943237,-0.31682100892066956
1766015509679038700,1.650038818359375,0.21605099737644196,0.19241900742053986,-0.25095900893211365
1766015509688645000,1.65964501953125,0.24738000333309174,0.16692200303077698,-0.15673500299453735
1766015509698251500,1.66925146484375,0.32051798701286316,0.12831400334835052,-0.1364939957857132
1766015509707858200,1.678858154296875,0.36520498991012573,0.14256399869918823,-0.14264099299907684
1766015509717464800,1.68846484375,0.35333800315856934,0.13118000328540802,-0.19092799723148346
1766015509727071200,1.6980712890625,0.30834099650382996,0.0615059994161129,-0.24879099428653717
1766015509736677600,1.707677734375,0.25034499168395996,-0.0038030000869184732,-0.30015799403190613
1766015509746284500,1.717284423828125,0.20324000716209412,-0.01826700009405613,-0.39110898971557617
1766015509755891000,1.726890869140625,0.20381399989128113,0.0133670000359416,-0.5368710160255432
1766015509765497600,1.73649755859375,0.16733700037002563,0.04225999861955643,-0.6551049947738647
1766015509775104300,1.746104248046875,0.11340399831533432,0.06750500202178955,-0.6110150218009949
1766015509784710700,1.755710693359375,0.04435800015926361,0.051837000995874405,-0.49945199489593506
1766015509794317000,1.765317138671875,-0.029864000156521797,0.057454001158475876,-0.36167898774147034
1766015509803923700,1.774923828125,-0.09691499918699265,0.10874299705028534,-0.2672100067138672
1766015509813530400,1.7845302734375,-0.20341800153255463,0.18095499277114868,-0.22547799348831177
1766015509823136800,1.79413671875,-0.29999300837516785,0.22911299765110016,-0.18299299478530884
1766015509832743400,1.803743408203125,-0.37486499547958374,0.23190100491046906,-0.12314099818468094
1766015509842350000,1.81335009765625,-0.42840901017189026,0.1982550024986267,-0.008621999993920326
1766015509851956500,1.82295654296875,-0.47272199392318726,0.16905400156974792,0.07433900237083435
1766015509861563100,1.832563232421875,-0.5003610253334045,0.14971299469470978,0.08929699659347534
1766015509871169800,1.842169677734375,-0.5784770250320435,0.11380500346422195,0.03186799958348274
1766015509880776200,1.851776123046875,-0.6173490285873413,0.09689100086688995,-0.05783399939537048
1766015509890382600,1.861382568359375,-0.636650025844574,0.09259600192308426,-0.1678519994020462
1766015509899989200,1.8709892578125,-0.580286979675293,0.09630399942398071,-0.22430899739265442
1766015509909596000,1.880595947265625,-0.499439001083374,0.10714299976825714,-0.17190900444984436
1766015509919202600,1.89020263671875,-0.4256629943847656,0.06036299839615822,-0.04493299871683121
1766015509928809000,1.89980908203125,-0.2824220061302185,-0.0013620000099763274,0.13093799352645874
1766015509938415600,1.90941552734375,-0.10243400186300278,-0.012374999932944775,0.3013109862804413
1766015509948022000,1.91902197265625,0.11524199694395065,0.007883000187575817,0.40204599499702454
1766015509957628700,1.928628662109375,0.2936669886112213,0.012715999968349934,0.4568859934806824
1766015509967235300,1.9382353515625,0.43355101346969604,0.021709999069571495,0.4778690040111542
1766015509976841700,1.947841796875,0.5107110142707825,0.04268199950456619,0.456167995929718
1766015509986448400,1.957448486328125,0.5658310055732727,0.0586480014026165,0.4020659923553467
1766015509996055000,1.967054931640625,0.5746690034866333,0.10179799795150757,0.33607301115989685
1766015510005661400,1.976661376953125,0.5013750195503235,0.13956600427627563,0.2916969954967499
1766015510015268000,1.98626806640625,0.3679549992084503,0.19495199620723724,0.31808599829673767
1766015510024874800,1.995874755859375,0.192221000790596,0.24806800484657288,0.3588379919528961
1766015510034481200,2.005481201171875,0.07781600207090378,0.2615779936313629,0.36991798877716064
1766015510044087800,2.015087890625,-0.09361500293016434,0.27707400918006897,0.3911899924278259
1766015510053694500,2.024694580078125,-0.21713599562644958,0.250791996717453,0.4230799973011017
1766015510063300900,2.03430078125,-0.2637619972229004,0.24715200066566467,0.41950100660324097
1766015510072907500,2.043907470703125,-0.2515920102596283,0.23500700294971466,0.3011060059070587
1766015510082514000,2.053513916015625,-0.24344900250434875,0.23949499428272247,0.1689710021018982
1766015510092120600,2.06312060546875,-0.21692900359630585,0.21780900657176971,0.07136599719524384
1766015510101727000,2.07272705078125,-0.1836239993572235,0.22071999311447144,0.01130400039255619
1766015510111333600,2.082333740234375,-0.14760500192642212,0.20193800330162048,-0.061601001769304276
1766015510120940300,2.091940185546875,-0.10566899925470352,0.2034280002117157,-0.11409399658441544
1766015510130547000,2.101546875,-0.13453100621700287,0.18924400210380554,-0.16097499430179596
1766015510140153300,2.1111533203125,-0.17263799905776978,0.15651200711727142,-0.18725700676441193
1766015510149759700,2.120759765625,-0.17451800405979156,0.14054499566555023,-0.15651200711727142
1766015510159366700,2.13036669921875,-0.15818500518798828,0.11412499845027924,-0.07923100143671036
1766015510168973000,2.13997314453125,-0.12964600324630737,0.11854200065135956,0.031207000836730003
1766015510178579500,2.149579345703125,-0.06738100200891495,0.11541900038719177,0.17416100203990936
1766015510188186000,2.15918603515625,0.10147800296545029,0.1761929988861084,0.2311919927597046
1766015510197792800,2.168792724609375,0.3075999915599823,0.2364480048418045,0.14390799403190613
1766015510207399200,2.178399169921875,0.5319409966468811,0.268559992313385,0.052188001573085785
1766015510217005800,2.188005859375,0.7371320128440857,0.2863039970397949,-0.014343000017106533
1766015510226612500,2.197612548828125,0.9101439714431763,0.3105059862136841,-0.09675700217485428
1766015510236219000,2.207218994140625,1.0122369527816772,0.3490920066833496,-0.1741349995136261
1766015510245825500,2.216825439453125,1.0100619792938232,0.3948409855365753,-0.23246100544929504
1766015510255432200,2.22643212890625,0.930633008480072,0.38752299547195435,-0.2297009974718094
1766015510265038600,2.23603857421875,0.8560429811477661,0.3906950056552887,-0.17301799356937408
1766015510274645200,2.245645263671875,0.7687399983406067,0.42677798867225647,-0.18195199966430664
1766015510284252000,2.255251953125,0.6739749908447266,0.488770991563797,-0.18817999958992004
1766015510293858300,2.2648583984375,0.5859689712524414,0.5299000144004822,-0.15768900513648987
1766015510303464700,2.274464599609375,0.5447840094566345,0.5453810095787048,-0.15520499646663666
1766015510313071600,2.284071533203125,0.5667799711227417,0.599399983882904,-0.2176620066165924
1766015510322678000,2.293677978515625,0.588030993938446,0.6437940001487732,-0.2795259952545166
1766015510332284400,2.303284423828125,0.550262987613678,0.6798200011253357,-0.3534899950027466
1766015510341891300,2.312891357421875,0.5091829895973206,0.7230790257453918,-0.4466339945793152
1766015510351497700,2.322497802734375,0.4141870141029358,0.8189399838447571,-0.5170140266418457
1766015510361104100,2.332104248046875,0.23011499643325806,0.8736640214920044,-0.5614780187606812
1766015510370711000,2.3417109375,-0.06741999834775925,0.8284890055656433,-0.5090500116348267
1766015510380317400,2.3513173828125,-0.3838610053062439,0.6560099720954895,-0.40411698818206787
1766015510389924000,2.360924072265625,-0.6494539976119995,0.4458779990673065,-0.2560670077800751
1766015510399530800,2.37053076171875,-0.7683169841766357,0.20521600544452667,-0.15984100103378296
1766015510409137200,2.38013720703125,-0.7862079739570618,0.0011859999503940344,-0.15662400424480438
1766015510418743800,2.389743896484375,-0.6708750128746033,-0.11264500021934509,-0.23780600726604462
1766015510428350200,2.39935009765625,-0.5099959969520569,-0.23260599374771118,-0.40363699197769165
1766015510437956900,2.408956787109375,-0.28822600841522217,-0.3448350131511688,-0.5433030128479004
1766015510447563300,2.418563232421875,-0.03819200024008751,-0.4991399943828583,-0.6497830152511597
1766015510457170000,2.428169921875,0.21295799314975739,-0.6862210035324097,-0.6999920010566711
1766015510466776600,2.437776611328125,0.4125080108642578,-0.824567973613739,-0.7387819886207581
1766015510476383000,2.447383056640625,0.6194149851799011,-0.9323530197143555,-0.744683027267456
1766015510485989600,2.45698974609375,0.8128610253334045,-0.952252984046936,-0.6865100264549255
1766015510495596300,2.46659619140625,0.9641479849815369,-0.9219440221786499,-0.5872849822044373
1766015510505203000,2.476202880859375,1.0475590229034424,-0.874521017074585,-0.4032459855079651
1766015510514809300,2.485809326171875,1.039065957069397,-0.8258799910545349,-0.10593300312757492
1766015510524415700,2.495415771484375,0.8819810152053833,-0.7808510065078735,0.2220979928970337
1766015510534022700,2.505022705078125,0.641327977180481,-0.7633169889450073,0.5060539841651917
1766015510543629000,2.514629150390625,0.37830299139022827,-0.7366849780082703,0.7451260089874268
1766015510553235500,2.5242353515625,0.12975700199604034,-0.6910600066184998,0.8783329725265503
1766015510562842000,2.533842041015625,-0.08925999701023102,-0.659168004989624,0.9507179856300354
1766015510572448800,2.54344873046875,-0.37929999828338623,-0.6224780082702637,0.9672510027885437
1766015510582055200,2.55305517578125,-0.6078720092773438,-0.6211749911308289,0.9136729836463928
1766015510591661800,2.562661865234375,-0.7465289831161499,-0.6449049711227417,0.7795529961585999
1766015510601268500,2.5722685546875,-0.8375800251960754,-0.6907950043678284,0.6270520091056824
1766015510610875000,2.581875,-0.8718420267105103,-0.823032021522522,0.5006020069122314
1766015510620481500,2.5914814453125,-0.8090829849243164,-0.8475540280342102,0.3651930093765259
1766015510630088200,2.601088134765625,-0.6473720073699951,-0.8292030096054077,0.2695299983024597
1766015510639694600,2.610694580078125,-0.4124000072479248,-0.7411159873008728,0.263033002614975
1766015510649301000,2.620301025390625,-0.2135320007801056,-0.6445350050926208,0.2875089943408966
1766015510658908000,2.629907958984375,-0.027243999764323235,-0.5600519776344299,0.45140600204467773
1766015510668514300,2.639514404296875,0.12605999410152435,-0.4726870059967041,0.6647059917449951
1766015510678120700,2.64912060546875,0.20084400475025177,-0.3723379969596863,0.8415520191192627
1766015510687727400,2.658727294921875,0.2812109887599945,-0.2915189862251282,1.066112995147705
1766015510697334000,2.668333984375,0.3583050072193146,-0.26539701223373413,1.1928000450134277
1766015510706940700,2.677940673828125,0.46660199761390686,-0.24743300676345825,1.202646017074585
1766015510716547000,2.687547119140625,0.6119009852409363,-0.17861999571323395,1.0657960176467896
1766015510726153700,2.69715380859375,0.7672929763793945,-0.11287800222635269,0.8022279739379883
1766015510735760100,2.706760009765625,0.9045799970626831,-0.00457199988886714,0.4861150085926056
1766015510745367000,2.716366943359375,1.0172959566116333,0.07119700312614441,0.18090899288654327
1766015510754973400,2.725973388671875,1.0504050254821777,0.14566099643707275,-0.06733600050210953
1766015510764579800,2.735579833984375,1.0291249752044678,0.1901949942111969,-0.22099900245666504
1766015510774186800,2.745186767578125,0.9244160056114197,0.2126300036907196,-0.24137000739574432
1766015510783793200,2.754793212890625,0.7519019842147827,0.2408909946680069,-0.1739570051431656
1766015510793399800,2.76439990234375,0.5881890058517456,0.30781999230384827,-0.0010770000517368317
1766015510803006200,2.774006103515625,0.38065800070762634,0.35152098536491394,0.1671369969844818
1766015510812612900,2.78361279296875,0.1354289948940277,0.37362098693847656,0.31834501028060913
1766015510822219500,2.793219482421875,-0.06582000106573105,0.3648799955844879,0.4638409912586212
1766015510831826000,2.802825927734375,-0.2971859872341156,0.33400899171829224,0.5907139778137207
1766015510841432600,2.8124326171875,-0.5630220174789429,0.3299489915370941,0.5742040276527405
1766015510851039200,2.822039306640625,-0.7798399925231934,0.37645798921585083,0.4174819886684418
1766015510860645600,2.831645751953125,-0.9974279999732971,0.4226129949092865,0.14258000254631042
1766015510870252300,2.841252197265625,-1.256659984588623,0.4740000069141388,-0.020625999197363853
1766015510879859000,2.85085888671875,-1.5633959770202637,0.38457798957824707,-0.1385129988193512
1766015510889465300,2.86046533203125,-1.9204039573669434,0.24781599640846252,-0.19769999384880066
1766015510899072000,2.870072021484375,-2.2388699054718018,0.19985799491405487,-0.28478899598121643
1766015510908678700,2.8796787109375,-2.350999116897583,0.27592501044273376,-0.3371410071849823
1766015510918285000,2.88928515625,-2.3725600242614746,0.433459997177124,-0.3416930139064789
1766015510927891500,2.898891357421875,-2.2670340538024902,0.5778729915618896,-0.3322780132293701
1766015510937498400,2.908498291015625,-2.0603408813476562,0.7082340121269226,-0.30141499638557434
1766015510947104800,2.918104736328125,-1.7319109439849854,0.8192409873008728,-0.3064279854297638
1766015510956711200,2.927711181640625,-1.2973309755325317,0.8265029788017273,-0.36834800243377686
1766015510966317800,2.93731787109375,-0.8492730259895325,0.8147140145301819,-0.41043800115585327
1766015510975924500,2.946924560546875,-0.4692460000514984,0.7695990204811096,-0.34383800625801086
1766015510985531000,2.95653076171875,-0.1651879996061325,0.6719110012054443,-0.16666199266910553
1766015510995137500,2.966137451171875,0.02751700021326542,0.5942530035972595,0.05187800154089928
1766015511004744200,2.975744140625,0.1736840009689331,0.5538719892501831,0.20626400411128998
1766015511014350600,2.9853505859375,0.29655200242996216,0.5915169715881348,0.28487399220466614
1766015511023957200,2.994957275390625,0.3193889856338501,0.6175500154495239,0.3280700147151947
1766015511033564000,3.00456396484375,0.29892000555992126,0.6194739937782288,0.3618209958076477
1766015511043170300,3.01417041015625,0.3162260055541992,0.5889530181884766,0.40669500827789307
1766015511052777000,3.02377685546875,0.347133994102478,0.579239010810852,0.3974960148334503
1766015511062383600,3.033383544921875,0.42607301473617554,0.6323639750480652,0.3265869915485382
1766015511071990300,3.042990234375,0.5251290202140808,0.636231005191803,0.22009800374507904
1766015511081596700,3.0525966796875,0.5919809937477112,0.5807989835739136,0.1892790049314499
1766015511091203300,3.062203369140625,0.6352609992027283,0.4861780107021332,0.16680899262428284
1766015511100809700,3.071809814453125,0.6330289840698242,0.31539300084114075,0.1891849935054779
1766015511110416400,3.08141650390625,0.5913969874382019,0.16860699653625488,0.18257400393486023
1766015511120023000,3.09102294921875,0.5604760050773621,0.08742699772119522,0.0902160033583641
1766015511129629400,3.10062939453125,0.6455690264701843,0.047106001526117325,-0.08110199868679047
1766015511139236000,3.110236083984375,0.7953680157661438,0.09335199743509293,-0.28266000747680664
1766015511148842800,3.1198427734375,0.9171630144119263,0.21971599757671356,-0.5572940111160278
1766015511158449400,3.129449462890625,1.0406290292739868,0.4586150050163269,-0.9108420014381409
1766015511168055800,3.139055908203125,1.1627850532531738,0.7655029892921448,-1.162861943244934
1766015511177662500,3.148662353515625,1.1661200523376465,0.9583430290222168,-1.2595280408859253
1766015511187269000,3.15826904296875,1.0480389595031738,0.9625869989395142,-1.1148229837417603
1766015511196875500,3.16787548828125,0.7943570017814636,0.6983919739723206,-0.5593500137329102
1766015511206482000,3.17748193359375,0.540041983127594,0.22395600378513336,0.22517700493335724
1766015511216088600,3.187088623046875,0.33166199922561646,-0.24491900205612183,0.9063100218772888
1766015511225695200,3.1966953125,0.255623996257782,-0.5867130160331726,1.1810230016708374
1766015511235301600,3.206301513671875,0.40789398550987244,-0.7551169991493225,1.0377269983291626
1766015511244908300,3.215908203125,0.644910991191864,-0.8620589971542358,0.5738919973373413
1766015511254515000,3.225514892578125,0.9037659764289856,-0.9461950063705444,-0.024241000413894653
1766015511264121300,3.235121337890625,1.1908329725265503,-0.9898070096969604,-0.681194007396698
1766015511273728000,3.24472802734375,1.4119449853897095,-1.0783439874649048,-1.3665779829025269
1766015511283334700,3.254334716796875,1.4616849422454834,-1.091750979423523,-1.9184420108795166
1766015511292941000,3.263941162109375,1.3854340314865112,-1.0867060422897339,-2.3073461055755615
1766015511302547700,3.273547607421875,1.2053049802780151,-0.9937859773635864,-2.5029070377349854
1766015511312154400,3.283154296875,0.9572110176086426,-0.8557299971580505,-2.457771062850952
1766015511321760800,3.2927607421875,0.6089670062065125,-0.7106660008430481,-2.1013410091400146
1766015511331367200,3.3023671875,0.3982740044593811,-0.5916140079498291,-1.6974149942398071
1766015511340974000,3.31197412109375,0.17214900255203247,-0.45148900151252747,-1.3047339916229248
1766015511350580500,3.32158056640625,0.00494399992749095,-0.28008800745010376,-0.9715800285339355
1766015511360187000,3.331186767578125,-0.14899399876594543,-0.14244499802589417,-0.6891840100288391
1766015511369793800,3.340793701171875,-0.4119440019130707,-0.09056299924850464,-0.48804399371147156
1766015511379400200,3.350400146484375,-0.6732249855995178,-0.033121999353170395,-0.32742899656295776
1766015511389006800,3.3600068359375,-0.9383500218391418,0.021126000210642815,-0.2457839995622635
1766015511398613200,3.36961328125,-1.207448959350586,-0.01483600027859211,-0.15039299428462982
1766015511408220000,3.379219970703125,-1.455873966217041,-0.23172199726104736,0.1608310043811798
1766015511417826600,3.38882666015625,-1.6533360481262207,-0.6232399940490723,0.647737979888916
1766015511427433200,3.39843310546875,-1.6607810258865356,-0.9906280040740967,0.9918500185012817
1766015511437039600,3.40803955078125,-1.3781230449676514,-1.1404379606246948,0.9636939764022827
1766015511446646300,3.417646240234375,-0.7931299805641174,-1.157662034034729,0.7378649711608887
1766015511456252700,3.427252685546875,-0.13050700724124908,-1.089015007019043,0.4060969948768616
1766015511465859600,3.436859619140625,0.6506819725036621,-1.1062350273132324,0.048367999494075775
1766015511475465700,3.4464658203125,1.3602030277252197,-1.2258820533752441,-0.39021798968315125
1766015511485072400,3.456072265625,1.8862199783325195,-1.2607519626617432,-0.9835950136184692
1766015511494679000,3.465678955078125,2.1230878829956055,-1.178125023841858,-1.6010220050811768
1766015511504285700,3.47528564453125,2.203597068786621,-1.0319600105285645,-2.037437915802002
1766015511513892000,3.48489208984375,2.136730909347534,-0.832086980342865,-2.1322851181030273
1766015511523498800,3.494498779296875,1.891726016998291,-0.5785290002822876,-1.937412977218628
1766015511533105400,3.50410546875,1.544240951538086,-0.33383500576019287,-1.590317964553833
1766015511542711800,3.5137119140625,1.143555998802185,-0.13025200366973877,-1.1587270498275757
1766015511552318200,3.523318115234375,0.7119979858398438,0.04911300167441368,-0.6464660167694092
1766015511561924900,3.5329248046875,0.3223389983177185,0.20479600131511688,-0.14295800030231476
1766015511571531500,3.542531494140625,-0.10612499713897705,0.2992590069770813,0.2701379954814911
1766015511581138000,3.552137939453125,-0.5525460243225098,0.33922600746154785,0.5020430088043213
1766015511590744600,3.56174462890625,-0.9851059913635254,0.359142005443573,0.5649170279502869
1766015511600351200,3.571351318359375,-1.3717210292816162,0.4075140058994293,0.46416300535202026
1766015511609957600,3.58095751953125,-1.691491961479187,0.4627169966697693,0.23258599638938904
1766015511619564300,3.590564208984375,-1.8416310548782349,0.5559989809989929,-0.03175399824976921
1766015511629171000,3.6001708984375,-1.8750489950180054,0.6543759703636169,-0.2788960039615631
1766015511638777300,3.60977734375,-1.7452160120010376,0.7015249729156494,-0.4657909870147705
1766015511648384000,3.619384033203125,-1.4701639413833618,0.689037024974823,-0.549839973449707
1766015511657990700,3.62899072265625,-1.0545860528945923,0.5574849843978882,-0.555961012840271
1766015511667597000,3.63859716796875,-0.6269609928131104,0.4375759959220886,-0.5056790113449097
1766015511677203500,3.648203369140625,-0.20252899825572968,0.35393399000167847,-0.49128100275993347
1766015511686810400,3.657810302734375,0.1802310049533844,0.2795650064945221,-0.5139909982681274
1766015511696416800,3.667416748046875,0.4503430128097534,0.22125500440597534,-0.5700979828834534
1766015511706023200,3.677023193359375,0.6454769968986511,0.18197600543498993,-0.6229419708251953
1766015511715630000,3.686630126953125,0.7954930067062378,0.19721800088882446,-0.6537420153617859
1766015511725236500,3.696236572265625,0.8761739730834961,0.21361200511455536,-0.6459760069847107
1766015511734843100,3.705843017578125,0.8630080223083496,0.2156510055065155,-0.5639780163764954
1766015511744449500,3.715449462890625,0.8283479809761047,0.23428000509738922,-0.4391759932041168
1766015511754056200,3.72505615234375,0.7648280262947083,0.29687198996543884,-0.354310005903244
1766015511763662800,3.734662841796875,0.6626160144805908,0.3694159984588623,-0.38807499408721924
1766015511773269200,3.744269287109375,0.5580750107765198,0.40608999133110046,-0.416797012090683
1766015511782876000,3.7538759765625,0.4298099875450134,0.4112820029258728,-0.3865930140018463
1766015511792482300,3.763482421875,0.29577401280403137,0.41056200861930847,-0.4400179982185364
1766015511802089000,3.7730888671875,0.14816699922084808,0.415706992149353,-0.5329669713973999
1766015511811695600,3.782695556640625,0.032933998852968216,0.4461590051651001,-0.6166200041770935
1766015511821302000,3.792302001953125,-0.092009998857975,0.4469430148601532,-0.6959249973297119
1766015511830908700,3.80190869140625,-0.16139599680900574,0.36885300278663635,-0.7176560163497925
1766015511840515300,3.811515380859375,-0.15602700412273407,0.3315359950065613,-0.7779409885406494
1766015511850122000,3.8211220703125,-0.058795999735593796,0.4170759916305542,-0.9598079919815063
1766015511878941700,3.849941650390625,0.19680100679397583,0.3721950054168701,-0.8659690022468567
1766015511888548000,3.859548095703125,0.019123999401926994,0.06174800172448158,-0.45910999178886414
1766015511898154800,3.86915478515625,-0.20869000256061554,-0.28438401222229004,-0.05923699960112572
1766015511907761200,3.87876123046875,-0.4283120036125183,-0.49365299940109253,0.23894600570201874
1766015511917367800,3.888367919921875,-0.534063994884491,-0.5382320284843445,0.4475660026073456
1766015511926974500,3.897974365234375,-0.43908798694610596,-0.43705299496650696,0.47608301043510437
1766015511936580900,3.907580810546875,-0.23390300571918488,-0.31527000665664673,0.39452600479125977
1766015511946187500,3.9171875,0.05254700034856796,-0.21481400728225708,0.34755900502204895
1766015511955794200,3.926794189453125,0.391090989112854,-0.2499600052833557,0.37459298968315125
1766015511965400600,3.936400634765625,0.7370359897613525,-0.35562801361083984,0.41348299384117126
1766015511975007200,3.94600732421875,1.0377399921417236,-0.43411099910736084,0.4286690056324005
1766015511984614000,3.95561376953125,1.2489659786224365,-0.5326679944992065,0.4087499976158142
1766015511994220300,3.96522021484375,1.4409129619598389,-0.6550940275192261,0.37741801142692566
1766015512003827000,3.974826904296875,1.598099946975708,-0.7812250256538391,0.35754498839378357
1766015512013433300,3.984433349609375,1.5769389867782593,-0.9176599979400635,0.2947610020637512
1766015512023040000,3.9940400390625,1.3695499897003174,-1.0424269437789917,0.3266650140285492
1766015512032646700,4.003646728515625,0.95625901222229,-1.0578620433807373,0.318013995885849
1766015512042253000,4.013253173828125,0.5002719759941101,-1.0015530586242676,0.25345200300216675
1766015512051859700,4.022859619140625,0.1301420032978058,-0.8993170261383057,0.23175300657749176
1766015512061466400,4.03246630859375,-0.22312000393867493,-0.7637940049171448,0.3185490071773529
1766015512071072800,4.04207275390625,-0.6026510000228882,-0.6622959971427917,0.5283049941062927
1766015512080679400,4.051679443359375,-0.9478740096092224,-0.6302300095558167,0.8040609955787659
1766015512090286000,4.0612861328125,-1.2461570501327515,-0.6179599761962891,1.0044779777526855
1766015512099892500,4.070892578125,-1.4514520168304443,-0.5753200054168701,1.0973260402679443
1766015512109499100,4.0804990234375,-1.52469003200531,-0.4792180061340332,1.0136610269546509
1766015512119105800,4.090105712890625,-1.503607988357544,-0.33904799818992615,0.7686129808425903
1766015512128712200,4.099712158203125,-1.4515210390090942,-0.21933400630950928,0.4322830140590668
1766015512138318600,4.109318603515625,-1.3644399642944336,-0.19340300559997559,0.1483529955148697
1766015512147925500,4.118925537109375,-1.187026023864746,-0.19821499288082123,-0.04863400012254715
1766015512157532000,4.128531982421875,-0.9137009978294373,-0.21509699523448944,-0.1668030023574829
1766015512167138300,4.13813818359375,-0.6412330269813538,-0.1882680058479309,-0.18271900713443756
1766015512176745000,4.147744873046875,-0.40779200196266174,-0.10469300299882889,-0.10367800295352936
1766015512186351600,4.1573515625,-0.198743999004364,-0.011753000319004059,0.05596400052309036
1766015512195958000,4.1669580078125,-0.01971999928355217,0.09245699644088745,0.2057420015335083
1766015512205564700,4.176564697265625,0.06078299880027771,0.1974010020494461,0.33192500472068787
1766015512215171300,4.18617138671875,0.004991000052541494,0.23215599358081818,0.4328460097312927
1766015512224777700,4.19577783203125,-0.13002300262451172,0.22926700115203857,0.4456549882888794
1766015512234384400,4.20538427734375,-0.2876780033111572,0.24608899652957916,0.43732398748397827
1766015512243991000,4.214990966796875,-0.4643779993057251,0.2568419873714447,0.3789519965648651
1766015512253597400,4.224597412109375,-0.6417480111122131,0.25947698950767517,0.28247201442718506
1766015512263204000,4.2342041015625,-0.7036839723587036,0.2956010103225708,0.11580599844455719
1766015512272810800,4.243810791015625,-0.7638339996337891,0.2830269932746887,-0.02596599981188774
1766015512282417200,4.253417236328125,-0.8370090126991272,0.23417000472545624,-0.08273699879646301
1766015512292023800,4.26302392578125,-0.9492300152778625,0.17096300423145294,-0.13459600508213043
1766015512301630500,4.27263037109375,-0.9353780150413513,0.12473800033330917,-0.11736299842596054
1766015512311236900,4.28223681640625,-0.8290330171585083,0.1386370062828064,0.016908999532461166
1766015512320843500,4.291843505859375,-0.7013480067253113,0.15526099503040314,0.21953800320625305
1766015512330450000,4.301449951171875,-0.5784159898757935,0.20342199504375458,0.43683698773384094
1766015512340056600,4.311056640625,-0.4381380081176758,0.24968700110912323,0.593455970287323
1766015512349663000,4.3206630859375,-0.34722900390625,0.2777380049228668,0.628669023513794
1766015512359269600,4.33026953125,-0.27220699191093445,0.316648006439209,0.530879020690918
1766015512368876300,4.339876220703125,-0.20579199492931366,0.36131200194358826,0.32625898718833923
1766015512378482700,4.349482666015625,-0.12114100158214569,0.3996320068836212,0.12313300371170044
1766015512388089300,4.35908935546875,-0.0538179986178875,0.3484579920768738,0.05291600152850151
1766015512397696000,4.368696044921875,0.029826000332832336,0.29798799753189087,0.05523800104856491
1766015512407302400,4.378302490234375,0.15986500680446625,0.24825100600719452,0.07784099876880646
1766015512416908800,4.38790869140625,0.3245289921760559,0.14813299477100372,0.12873999774456024
1766015512426515700,4.397515625,0.48436400294303894,0.08487699925899506,0.16509899497032166
1766015512436122000,4.4071220703125,0.620747983455658,0.03791400045156479,0.14218999445438385
1766015512445728800,4.416728759765625,0.7309989929199219,0.035436999052762985,0.20417700707912445
1766015512455335200,4.426335205078125,0.7851889729499817,0.023787999525666237,0.20830699801445007
1766015512464941800,4.43594189453125,0.8252019882202148,0.16351200640201569,0.07466600090265274
1766015512474548200,4.44554833984375,0.9255669713020325,0.49189499020576477,-0.2264309972524643
1766015512484155000,4.45515478515625,1.0144109725952148,0.9567679762840271,-0.6421800255775452
1766015512493761500,4.464761474609375,0.9989089965820312,1.1949700117111206,-0.7926849722862244
1766015512503368200,4.4743681640625,0.8212419748306274,1.2086509466171265,-0.5478760004043579
1766015512512974600,4.483974609375,0.49914100766181946,0.9585260152816772,-0.03583500161767006
1766015512522581200,4.493581298828125,0.34183499217033386,0.7450029850006104,0.5091090202331543
1766015512532187600,4.503187744140625,0.7168110013008118,0.6249240040779114,0.990231990814209
1766015512541794300,4.512794189453125,1.113705039024353,0.3106760084629059,1.20647394657135
1766015512551400700,4.522400634765625,1.6235100030899048,-0.171082004904747,1.252102017402649
1766015512561007400,4.53200732421875,2.1845409870147705,-0.6069849729537964,1.0224549770355225
1766015512570614000,4.541614013671875,2.608820915222168,-0.8845900297164917,0.46891599893569946
1766015512580220400,4.551220458984375,2.595916986465454,-1.1054259538650513,-0.2054390013217926
1766015512589827000,4.5608271484375,2.2749149799346924,-1.3164629936218262,-0.7094100117683411
1766015512599433700,4.570433837890625,1.7671760320663452,-1.4823180437088013,-0.9759010076522827
1766015512609040100,4.5800400390625,1.3141950368881226,-1.3773889541625977,-0.973924994468689
1766015512618646800,4.589646728515625,1.1381030082702637,-1.0070810317993164,-0.7562249898910522
1766015512628253400,4.59925341796875,1.0363600254058838,-0.47720199823379517,0.11692500114440918
1766015512637859800,4.60885986328125,0.6702399849891663,-0.2967489957809448,0.9239889979362488
1766015512647466500,4.618466552734375,1.0097689628601074,-0.6358810067176819,0.22904500365257263
1766015512657073000,4.628072998046875,1.2660130262374878,-1.3302210569381714,-2.904236078262329
1766015512666679600,4.637679443359375,0.6205090284347534,-0.7602350115776062,-2.0518460273742676
1766015512676286000,4.647285888671875,-1.1121419668197632,-0.5014610290527344,0.24050399661064148
1766015512685892600,4.656892578125,-1.3680479526519775,-0.6592370271682739,1.7855709791183472
1766015512695499300,4.666499267578125,0.20641399919986725,-0.8236920237541199,2.1163790225982666
1766015512705105700,4.676105712890625,0.6710780262947083,-1.3400750160217285,1.931684970855713
1766015512714712300,4.68571240234375,-0.14604400098323822,-1.575692057609558,1.6029809713363647
1766015512724319000,4.695319091796875,-1.1444469690322876,-1.3427660465240479,1.0221060514450073
1766015512733925400,4.70492529296875,-0.8051329851150513,-0.6095889806747437,0.16187399625778198
1766015512743532000,4.714531982421875,-0.025837000459432602,-0.15120500326156616,-0.643733024597168
1766015512753138700,4.724138671875,0.7300570011138916,-0.22385099530220032,-1.4707679748535156
1766015512762745000,4.7337451171875,0.868598997592926,-0.7964529991149902,-2.0810039043426514
1766015512772351500,4.7433515625,-0.35392001271247864,-1.5745940208435059,-2.067389965057373
1766015512781958400,4.75295849609375,-3.8144540786743164,-2.2033441066741943,-0.7852749824523926
1766015512791564800,4.762564697265625,-2.2702579498291016,-2.7272539138793945,-1.4197889566421509
1766015512801171200,4.772171142578125,-2.7077999114990234,-2.353764057159424,-1.5994549989700317
1766015512810777900,4.78177783203125,-3.067030906677246,-1.3057689666748047,-1.3403140306472778
1766015512820384500,4.791384521484375,-3.84175705909729,-0.48222601413726807,-0.5217639803886414
1766015512829991000,4.800990966796875,-4.99292516708374,-0.25078800320625305,0.6452670097351074
1766015512839597300,4.810597412109375,-5.792661190032959,-0.2970539927482605,1.4995319843292236
1766015512849204200,4.820204345703125,-6.516831874847412,-0.31660598516464233,1.5669759511947632
1766015512858810600,4.829810546875,-6.101358890533447,-0.30547401309013367,0.8710910081863403
1766015512868417000,4.8394169921875,-1.5473660230636597,0.6126760244369507,-1.874737024307251
1766015512878023700,4.849023681640625,0.8465989828109741,1.2715200185775757,-5.331211090087891
1766015512887630300,4.85863037109375,1.2080750465393066,0.7482510209083557,-6.979574203491211
1766015512897236700,4.86823681640625,1.3122620582580566,-0.5461999773979187,-6.0874857902526855
1766015512906843400,4.877843505859375,2.299412965774536,-1.9568790197372437,-4.198328971862793
1766015512916450000,4.887449951171875,4.08620023727417,-2.391124963760376,-3.081334114074707
1766015512926056400,4.897056396484375,5.971790790557861,-2.349302053451538,-2.4419989585876465
1766015512935662800,4.906662841796875,7.191712856292725,-2.56760311126709,-2.5426700115203857
1766015512945269800,4.916269775390625,6.38417387008667,-2.411781072616577,-4.220017910003662
1766015512954876200,4.925876220703125,5.011102199554443,-2.5142428874969482,-6.209321975708008
1766015512964482800,4.93548291015625,2.3673510551452637,-3.150930881500244,-7.183626174926758
1766015512974089200,4.945089111328125,-0.45482000708580017,-3.985063076019287,-7.68266487121582
1766015512983696000,4.95469580078125,-2.521320104598999,-4.962606906890869,-8.967920303344727
1766015512993302300,4.96430224609375,-3.4378840923309326,-5.31111478805542,-9.60470962524414
1766015513002909000,4.973908935546875,-3.1626830101013184,-5.0663862228393555,-8.633992195129395
1766015513012515600,4.983515625,-2.560925006866455,-4.713168144226074,-6.463957786560059
1766015513022122000,4.9931220703125,-2.2341039180755615,-4.940422058105469,-4.495348930358887
1766015513031728400,5.002728271484375,-2.1675760746002197,-5.468015193939209,-3.03574800491333
1766015513041335300,5.012335205078125,-2.0640249252319336,-5.771183013916016,-1.8644449710845947
1766015513050941700,5.021941650390625,-1.6110670566558838,-5.825984954833984,-0.5391749739646912
1766015513060548000,5.031548095703125,-1.0620059967041016,-5.002674102783203,1.284783959388733
1766015513070154800,5.04115478515625,-0.29352301359176636,-3.6128880977630615,4.2294921875
1766015513079761400,5.050761474609375,0.31665000319480896,-2.2715609073638916,7.431820869445801
1766015513089367800,5.060367919921875,1.4406729936599731,-1.2667200565338135,11.268488883972168
1766015513098974500,5.069974365234375,2.8762450218200684,-0.09352800250053406,14.904191970825195
1766015513108581000,5.0795810546875,3.8894219398498535,1.3019059896469116,17.466501235961914
1766015513118187500,5.0891875,4.024538040161133,2.532870054244995,18.580232620239258
1766015513127794200,5.098794189453125,3.5283849239349365,3.490417003631592,18.181354522705078
1766015513137400800,5.10840087890625,2.3258750438690186,4.008718013763428,16.323734283447266
1766015513147007200,5.11800732421875,0.519756019115448,3.8547511100769043,14.401805877685547
1766015513156613600,5.127613525390625,-1.4518170356750488,3.0846168994903564,13.037511825561523
1766015513166220300,5.13722021484375,-3.704893112182617,2.2722079753875732,12.037854194641113
1766015513175827000,5.146826904296875,-6.3926191329956055,1.3454819917678833,11.169482231140137
1766015513185433600,5.15643359375,-8.870590209960938,0.3922860026359558,9.968475341796875
1766015513195040300,5.166040283203125,-10.559627532958984,-0.2929159998893738,8.144353866577148
1766015513204646700,5.175646728515625,-10.781205177307129,-0.7753859758377075,5.2978410720825195
1766015513214253000,5.185253173828125,-10.395506858825684,-0.79618901014328,3.3918581008911133
1766015513223859700,5.194859619140625,-9.874350547790527,-0.9294589757919312,2.467658042907715
1766015513233466400,5.20446630859375,-9.457381248474121,-1.2834620475769043,2.060321092605591
1766015513243072800,5.21407275390625,-9.010945320129395,-1.373918056488037,1.851199984550476
1766015513252679400,5.223679443359375,-8.47987174987793,-1.1947849988937378,1.9405690431594849
1766015513262286000,5.2332861328125,-7.981704235076904,-1.3402099609375,2.8397469520568848
1766015513271892500,5.242892578125,-8.118942260742188,-1.09641695022583,3.227569103240967
1766015513281499000,5.252498779296875,-8.560591697692871,-0.7805219888687134,3.7496230602264404
1766015513291105800,5.262105712890625,-9.169651985168457,-0.9189199805259705,5.311905860900879
1766015513300712200,5.271712158203125,-10.063725471496582,-1.8071999549865723,7.065818786621094
1766015513310318600,5.281318603515625,-10.84253215789795,-3.2051289081573486,7.811191082000732
1766015513319925500,5.290925537109375,-11.092036247253418,-5.0099778175354,7.360195159912109
1766015513329532000,5.300531982421875,-10.348234176635742,-6.502242088317871,6.694256782531738
1766015513339138300,5.31013818359375,-8.627511978149414,-7.243772029876709,6.161156177520752
1766015513348745000,5.319744873046875,-4.879456996917725,-7.004049777984619,5.7627410888671875
1766015513358351600,5.3293515625,0.5794429779052734,-6.322441101074219,6.098033905029297
1766015513367958000,5.3389580078125,5.829057216644287,-5.1645941734313965,7.135003089904785
1766015513377564700,5.348564697265625,9.495250701904297,-4.061902046203613,8.175043106079102
1766015513387171300,5.35817138671875,13.045520782470703,-4.341472148895264,10.028528213500977
1766015513396777700,5.36777783203125,16.560529708862305,-5.037416934967041,11.800517082214355
1766015513406384000,5.377384033203125,19.616697311401367,-5.389441013336182,12.015162467956543
1766015513415991000,5.386990966796875,20.638324737548828,-5.1217451095581055,10.274358749389648
1766015513425597400,5.396597412109375,18.711650848388672,-4.736601829528809,6.531682968139648
1766015513435204000,5.4062041015625,14.694514274597168,-4.256892204284668,2.053244113922119
1766015513444810500,5.415810546875,10.533875465393066,-4.091856002807617,-0.7440360188484192
1766015513454417200,5.425417236328125,7.398487091064453,-3.7886250019073486,-1.9723750352859497
1766015513464023600,5.4350234375,5.9001240730285645,-3.0175299644470215,-2.5520389080047607
1766015513473630200,5.444630126953125,5.489126205444336,-2.2568280696868896,-2.526318073272705
1766015513483236900,5.45423681640625,5.856544017791748,-1.8122680187225342,-2.415955066680908
1766015513492843300,5.46384326171875,6.618908882141113,-1.526039958000183,-2.84466290473938
1766015513502450000,5.473449951171875,6.675340175628662,-1.4992430210113525,-3.8364059925079346
1766015513512056600,5.483056640625,6.549440860748291,-1.5519829988479614,-5.180710792541504
1766015513521663000,5.4926630859375,6.576035022735596,-1.5694019794464111,-5.7070112228393555
1766015513531269600,5.50226953125,6.847959041595459,-1.8240469694137573,-5.711021900177002
1766015513540876300,5.511876220703125,6.871365070343018,-2.3852829933166504,-6.111228942871094
1766015513550482700,5.521482666015625,6.087349891662598,-2.955035924911499,-7.089029788970947
1766015513560089300,5.53108935546875,5.159427165985107,-3.458132028579712,-8.453235626220703
1766015513569695700,5.54069580078125,4.0485758781433105,-4.024755954742432,-9.494545936584473
1766015513579302400,5.550302490234375,2.971874952316284,-4.682600021362305,-9.655177116394043
1766015513588908800,5.55990869140625,1.8248059749603271,-5.057898998260498,-8.779449462890625
1766015513598515500,5.569515380859375,0.8148019909858704,-5.356770992279053,-7.196308135986328
1766015513608122000,5.5791220703125,0.616159975528717,-5.559871196746826,-5.300938129425049
1766015513617728500,5.588728515625,0.9852489829063416,-5.607251167297363,-3.8738889694213867
1766015513627335200,5.598335205078125,1.4963630437850952,-6.025047779083252,-2.6814169883728027
1766015513636941600,5.607941650390625,1.7856800556182861,-6.6055498123168945,-1.6114890575408936
1766015513646548200,5.61754833984375,1.5627870559692383,-6.953435897827148,-0.08526500314474106
1766015513656155000,5.62715478515625,-0.16828100383281708,-7.539498805999756,2.9338579177856445
1766015513665761300,5.63676123046875,-2.209733009338379,-7.218789100646973,6.439879894256592
1766015513675368000,5.646367919921875,-2.890618085861206,-5.891108989715576,10.202526092529297
1766015513684974300,5.655974365234375,-1.7956550121307373,-4.3721699714660645,14.098308563232422
1766015513694581000,5.6655810546875,-0.6594840288162231,-2.6095778942108154,17.538637161254883
1766015513704187600,5.675187744140625,-0.519690990447998,-0.9184120297431946,20.298458099365234
1766015513713794000,5.6847939453125,-0.9832710027694702,0.0014860000228509307,22.06521224975586
1766015513723400700,5.694400634765625,-1.8172060251235962,-0.02265400066971779,22.509925842285156
1766015513733007400,5.70400732421875,-3.0499210357666016,-0.5274659991264343,21.375865936279297
1766015513742613800,5.71361376953125,-4.700523853302002,-0.8742309808731079,18.806428909301758
1766015513752220400,5.723220458984375,-6.426319122314453,-0.9955580234527588,15.316012382507324
1766015513761826800,5.732826904296875,-7.880413055419922,-0.9682000279426575,11.976415634155273
1766015513771433500,5.74243359375,-9.407693862915039,-1.1815379858016968,9.688722610473633
1766015513781040000,5.7520400390625,-11.08874225616455,-1.2966079711914062,7.96574592590332
1766015513790646500,5.761646484375,-12.538902282714844,-0.8355219960212708,7.071375846862793
1766015513800253200,5.771253173828125,-13.641738891601562,-0.27975600957870483,6.808018207550049
1766015513809859600,5.780859619140625,-14.010005950927734,-0.2331559956073761,6.781169891357422
1766015513819466200,5.79046630859375,-13.789924621582031,-0.6474320292472839,6.62473201751709
1766015513829073000,5.800072998046875,-12.968172073364258,-1.8692560195922852,5.573844909667969
1766015513838679300,5.80967919921875,-12.726198196411133,-3.204171895980835,4.214252948760986
1766015513848286000,5.819285888671875,-12.466188430786133,-4.618954181671143,2.503933906555176
1766015513857892600,5.828892578125,-11.79791259765625,-5.73112678527832,0.9886410236358643
1766015513867499000,5.8384990234375,-10.70847225189209,-6.295470237731934,-0.2544049918651581
1766015513877105700,5.848105712890625,-9.461990356445312,-6.170257091522217,-0.9962930083274841
1766015513886712000,5.857712158203125,-8.127087593078613,-5.492505073547363,-1.0346169471740723
1766015513896318700,5.867318603515625,-6.34480094909668,-4.608065128326416,0.13740700483322144
1766015513905925400,5.87692529296875,-4.795001029968262,-3.503495931625366,2.781994104385376
1766015513915531800,5.88653173828125,-4.29783821105957,-2.9339799880981445,5.928983211517334
1766015513925138400,5.896138427734375,-4.8029680252075195,-3.2690420150756836,7.586833953857422
1766015513934745000,5.9057451171875,-5.985658168792725,-3.635364055633545,7.797517776489258
1766015513944351500,5.9153515625,-7.616872787475586,-3.8899118900299072,7.85844612121582
1766015513953958100,5.924958251953125,-8.296591758728027,-4.793583869934082,7.9570088386535645
1766015513963564800,5.934564697265625,-6.498809814453125,-5.821004867553711,8.24145793914795
1766015513973171200,5.944171142578125,-2.6360321044921875,-6.030576229095459,8.672673225402832
1766015513982777900,5.95377783203125,2.528784990310669,-5.9465179443359375,10.579963684082031
1766015513992384300,5.96338427734375,7.640748023986816,-5.955554962158203,12.900638580322266
1766015514001991000,5.972990966796875,12.703259468078613,-6.237770080566406,14.126276969909668
1766015514011597600,5.98259765625,16.98940658569336,-5.66708517074585,14.010953903198242
1766015514021204200,5.992204345703125,19.269258499145508,-5.200674057006836,14.286361694335938
1766015514030810600,6.001810546875,19.817096710205078,-5.787020206451416,15.148067474365234
1766015514040417000,6.0114169921875,19.01699447631836,-6.775843143463135,14.416763305664062
1766015514050023700,6.021023681640625,17.07447052001953,-7.087515830993652,11.728891372680664
1766015514059630300,6.03063037109375,13.895227432250977,-6.41192102432251,7.329092979431152
1766015514069236700,6.04023681640625,10.627375602722168,-5.612570762634277,4.158716201782227
1766015514078843400,6.049843505859375,8.799736022949219,-4.937798976898193,2.609783887863159
1766015514088449800,6.05944970703125,7.8398308753967285,-4.323273181915283,1.0698490142822266
1766015514098056400,6.069056396484375,6.88309383392334,-3.879223108291626,-0.8229249715805054
1766015514107663000,6.0786630859375,6.678020000457764,-3.633992910385132,-1.9184390306472778
1766015514117269800,6.088269775390625,7.275231838226318,-3.4256019592285156,-2.6172869205474854
1766015514126876200,6.097876220703125,7.9112091064453125,-3.3757879734039307,-3.711570978164673
1766015514136482600,6.107482666015625,8.096840858459473,-3.493216037750244,-5.185870170593262
1766015514146089500,6.11708935546875,7.04534912109375,-3.8177030086517334,-6.6335649490356445
1766015514155695900,6.12669580078125,5.753657817840576,-4.245543003082275,-7.618660926818848
1766015514165302300,6.13630224609375,5.535813808441162,-4.645733833312988,-8.314833641052246
1766015514174909000,6.145908935546875,5.579020023345947,-5.262744903564453,-9.311123847961426
1766015514184515600,6.155515625,5.762656211853027,-6.1192240715026855,-10.39814567565918
1766015514194122000,6.1651220703125,6.331592082977295,-7.023427963256836,-11.147168159484863
1766015514203728400,6.174728271484375,6.561638832092285,-8.106499671936035,-10.961402893066406
1766015514213335300,6.184335205078125,6.857471942901611,-9.528203010559082,-10.128487586975098
1766015514222941700,6.193941650390625,7.195794105529785,-11.27383041381836,-9.579627990722656
1766015514232548000,6.203548095703125,7.18003511428833,-13.239234924316406,-9.148045539855957
1766015514242155000,6.213155029296875,6.031665802001953,-14.978097915649414,-8.175398826599121
1766015514251761400,6.222761474609375,3.030673027038574,-16.63697052001953,-6.381052017211914
1766015514261367800,6.232367919921875,-0.3043529987335205,-17.95421600341797,-3.6057329177856445
1766015514270974700,6.241974609375,-2.8651180267333984,-17.90164566040039,1.1762349605560303
1766015514280581000,6.2515810546875,-3.8902618885040283,-16.344493865966797,7.7289018630981445
1766015514290187500,6.2611875,-2.8967320919036865,-13.429770469665527,15.443427085876465
1766015514299794400,6.27079443359375,-0.6492429971694946,-10.154874801635742,22.75023651123047
1766015514309400800,6.28040087890625,1.6308289766311646,-7.787473201751709,27.412296295166016
1766015514319007200,6.29000732421875,2.889162063598633,-6.837615013122559,29.967145919799805
1766015514328614000,6.29961376953125,2.1245360374450684,-6.962591171264648,31.47072410583496
1766015514338220500,6.309220458984375,-2.0236051082611084,-7.549015998840332,31.064096450805664
1766015514347827000,6.318826904296875,-7.292686939239502,-7.963698863983154,28.5290584564209
1766015514357433300,6.328433349609375,-12.296687126159668,-7.472681999206543,25.273229598999023
1766015514367040300,6.338040283203125,-16.27202606201172,-6.527544021606445,21.28572654724121
1766015514376646700,6.347646728515625,-18.628841400146484,-5.816683769226074,17.1514835357666
1766015514386253000,6.357253173828125,-19.685335159301758,-6.438529014587402,14.734457015991211
1766015514395859700,6.366859619140625,-19.547964096069336,-7.38601016998291,13.684934616088867
1766015514405466400,6.37646630859375,-17.664012908935547,-7.453911781311035,11.916295051574707
1766015514424679700,6.3956796875,-13.148460388183594,-7.153744220733643,10.053266525268555
1766015514434286000,6.4052861328125,-12.35542106628418,-7.212907791137695,9.936315536499023
1766015514443892500,6.414892578125,-12.34777545928955,-7.0160980224609375,9.999728202819824
1766015514453499100,6.4244990234375,-13.501211166381836,-7.171276092529297,9.376214981079102
1766015514463105800,6.434105712890625,-15.168533325195312,-7.702552795410156,7.728086948394775
1766015514472712200,6.443712158203125,-16.328968048095703,-8.401742935180664,5.991151809692383
1766015514482318800,6.45331884765625,-16.54184341430664,-9.189338684082031,4.224494934082031
1766015514491925500,6.462925537109375,-15.381561279296875,-9.671201705932617,2.828929901123047
1766015514501532000,6.472531982421875,-13.152762413024902,-9.97271728515625,2.24468994140625
1766015514511138300,6.48213818359375,-10.701349258422852,-9.958011627197266,2.506880044937134
1766015514520745200,6.4917451171875,-8.32223129272461,-9.74661636352539,3.4025990962982178
1766015514530351600,6.5013515625,-7.0829758644104,-9.51171875,4.445519924163818
1766015514539958000,6.5109580078125,-6.383498191833496,-9.379236221313477,5.664342880249023
1766015514549565000,6.52056494140625,-6.05836296081543,-9.504915237426758,7.100546836853027
1766015514559171300,6.53017138671875,-6.479244232177734,-10.549104690551758,7.938093185424805
1766015514568777700,6.53977783203125,-7.06387186050415,-12.51194953918457,7.010768890380859
1766015514578384400,6.54938427734375,-7.3003740310668945,-13.411504745483398,5.0815911293029785
1766015514587991000,6.558990966796875,-6.737811088562012,-13.072002410888672,4.639135837554932
1766015514597597400,6.568597412109375,-5.039752960205078,-12.392160415649414,6.432355880737305
1766015514607204000,6.5782041015625,-3.9976298809051514,-11.259931564331055,9.361224174499512
1766015514616810800,6.587810791015625,-4.087302207946777,-11.208123207092285,13.281234741210938
1766015514626417200,6.597417236328125,-4.583727836608887,-11.279642105102539,16.74569320678711
1766015514636023600,6.6070234375,-4.866537094116211,-10.980448722839355,18.435741424560547
1766015514645630200,6.616630126953125,-5.353569030761719,-11.645679473876953,17.758060455322266
1766015514655236900,6.62623681640625,-5.188204765319824,-12.713159561157227,15.207558631896973
1766015514664843300,6.63584326171875,-2.2467200756073,-12.994558334350586,12.948004722595215
1766015514674449700,6.64544970703125,7.693594932556152,-12.307478904724121,11.43845272064209
1766015514684056600,6.655056640625,21.857498168945312,-10.475078582763672,9.871992111206055
1766015514693663000,6.6646630859375,34.65269470214844,-7.637960910797119,6.963037014007568
1766015514703269600,6.67426953125,38.677852630615234,-5.79779577255249,3.8018178939819336
1766015514712876000,6.6838759765625,33.332305908203125,-6.630794048309326,2.6275219917297363
1766015514722482700,6.693482666015625,24.505016326904297,-7.510301113128662,1.8021960258483887
1766015514732089000,6.703089111328125,18.28792953491211,-7.7149739265441895,0.7429190278053284
1766015514741695700,6.71269580078125,17.231800079345703,-7.276063919067383,-0.33385899662971497
1766015514751302400,6.722302490234375,20.166841506958008,-7.08018684387207,0.02077700011432171
1766015514760908800,6.73190869140625,22.448883056640625,-7.628106117248535,1.6003919839859009
1766015514770515500,6.741515380859375,20.282611846923828,-8.730429649353027,4.583152770996094
1766015514780121900,6.751121826171875,15.199241638183594,-9.998043060302734,8.614241600036621
1766015514789728500,6.760728515625,9.831814765930176,-11.188962936401367,12.36227798461914
1766015514799335200,6.770335205078125,5.180716037750244,-11.742886543273926,15.676529884338379
1766015514808941600,6.779941650390625,1.4997379779815674,-11.563407897949219,17.733182907104492
1766015514818548200,6.78954833984375,-1.0347059965133667,-11.04692554473877,16.744462966918945
1766015514828155000,6.79915478515625,-3.294390916824341,-10.364572525024414,13.489029884338379
1766015514837761300,6.80876123046875,-6.538649082183838,-9.973493576049805,10.901121139526367
1766015514847368000,6.818367919921875,-10.265128135681152,-9.271512985229492,9.331050872802734
1766015514856974300,6.827974365234375,-13.421058654785156,-8.4282865524292,9.488266944885254
1766015514866581000,6.8375810546875,-16.0128231048584,-7.193613052368164,10.370994567871094
1766015514876187600,6.847187744140625,-18.368804931640625,-5.689262866973877,10.954760551452637
1766015514885794000,6.8567939453125,-19.525955200195312,-4.476885795593262,11.070943832397461
1766015514895400700,6.866400634765625,-19.655315399169922,-3.334963083267212,10.832550048828125
1766015514905007400,6.87600732421875,-19.752948760986328,-2.2183759212493896,10.744407653808594
1766015514914613800,6.88561376953125,-20.03583335876465,-1.2732110023498535,10.741649627685547
1766015514924220400,6.895220458984375,-20.62101936340332,-0.6945229768753052,10.22457218170166
1766015514933827000,6.9048271484375,-22.11912727355957,-0.5724689960479736,8.875588417053223
1766015514943433500,6.91443359375,-23.699161529541016,-0.8924890160560608,6.84161376953125
1766015514953040100,6.9240400390625,-24.730602264404297,-1.6165070533752441,4.445096015930176
1766015514962646500,6.933646484375,-24.68274688720703,-2.390878915786743,2.649148941040039
1766015514972253200,6.943253173828125,-23.544540405273438,-2.811708927154541,2.1006739139556885
1766015514981859800,6.95285986328125,-21.622238159179688,-3.0210680961608887,2.8103809356689453
1766015514991466200,6.96246630859375,-19.287961959838867,-3.319453001022339,4.511809825897217
1766015515001073000,6.972072998046875,-17.511898040771484,-3.9391698837280273,6.864260196685791
1766015515010679300,6.98167919921875,-16.345529556274414,-5.606982231140137,9.414087295532227
1766015515020286000,6.991285888671875,-15.274633407592773,-8.829156875610352,10.213768005371094
1766015515029892600,7.000892578125,-14.227611541748047,-12.293371200561523,8.136153221130371
1766015515039499000,7.0104990234375,-13.356348037719727,-15.300727844238281,5.918394088745117
1766015515049105400,7.02010546875,-8.550115585327148,-18.67289924621582,5.3954691886901855
1766015515058712300,7.02971240234375,5.125729084014893,-19.673044204711914,4.231744766235352
1766015515068318700,7.039318603515625,22.132478713989258,-17.351451873779297,3.0769588947296143
1766015515077925000,7.048925048828125,34.86074447631836,-14.081279754638672,3.4464221000671387
1766015515087531800,7.05853173828125,38.84627914428711,-11.639508247375488,5.576108932495117
1766015515097138400,7.068138427734375,37.32139587402344,-10.974311828613281,10.047531127929688
1766015515106744800,7.077744873046875,35.454830169677734,-10.879801750183105,15.476530075073242
1766015515116351500,7.0873515625,34.36534118652344,-11.025824546813965,17.68438148498535
1766015515125958100,7.096958251953125,32.36228942871094,-11.191559791564941,16.306350708007812
1766015515135564500,7.106564453125,28.863677978515625,-11.298297882080078,14.018096923828125
1766015515145171200,7.116171142578125,25.814220428466797,-10.64162826538086,11.304841995239258
1766015515154777600,7.125777587890625,24.7932186126709,-9.710447311401367,9.136610984802246
1766015515164384300,7.13538427734375,24.067310333251953,-9.069847106933594,9.041130065917969
1766015515173991000,7.144990966796875,22.590599060058594,-8.979801177978516,10.2034912109375
1766015515183597300,7.154597412109375,21.09444236755371,-9.723350524902344,11.858865737915039
1766015515193204000,7.164203857421875,19.277877807617188,-10.901688575744629,12.618266105651855
1766015515202810600,7.173810546875,15.629989624023438,-12.139158248901367,12.185070037841797
1766015515212417000,7.1834169921875,10.070768356323242,-12.972257614135742,11.799217224121094
1766015515222023700,7.193023681640625,3.4240849018096924,-12.801182746887207,12.395130157470703
1766015515231630300,7.20263037109375,-2.7756059169769287,-11.85293960571289,13.206677436828613
1766015515241236700,7.21223681640625,-7.7754998207092285,-10.601749420166016,12.96223258972168
1766015515250843100,7.221843017578125,-11.1224365234375,-9.473226547241211,12.108778953552246
1766015515260449800,7.23144970703125,-13.313348770141602,-8.318472862243652,11.69890308380127
1766015515270056400,7.241056396484375,-14.868026733398438,-7.100475788116455,12.285658836364746
1766015515279662800,7.250662841796875,-16.09273338317871,-6.026278018951416,12.932991981506348
1766015515289269500,7.26026953125,-16.923458099365234,-5.023212909698486,12.917859077453613
1766015515298876200,7.269876220703125,-17.803876876831055,-3.944161891937256,12.264307022094727
1766015515308482600,7.279482666015625,-19.305511474609375,-3.2608730792999268,11.471656799316406
1766015515318089000,7.2890888671875,-20.987775802612305,-2.7996749877929688,10.529821395874023
1766015515327695600,7.298695556640625,-21.746253967285156,-2.6143429279327393,9.675021171569824
1766015515337302000,7.308302001953125,-21.620534896850586,-3.0156850814819336,8.87338924407959
1766015515346908700,7.31790869140625,-20.91783332824707,-3.8162460327148438,7.914181232452393
1766015515356515300,7.327515380859375,-19.88622283935547,-4.7337799072265625,7.271951198577881
1766015515366122000,7.3371220703125,-18.533954620361328,-5.56247615814209,6.897893905639648
1766015515375728400,7.346728271484375,-17.012130737304688,-5.966165065765381,6.905677795410156
1766015515385335000,7.3563349609375,-15.947195053100586,-6.118437767028809,7.724339962005615
1766015515394941700,7.365941650390625,-15.045923233032227,-6.673157215118408,8.971323013305664
1766015515404548000,7.375548095703125,-14.038213729858398,-7.641969203948975,9.55539608001709
1766015515414154800,7.38515478515625,-12.868650436401367,-8.672314643859863,9.190449714660645
1766015515423761400,7.394761474609375,-12.061853408813477,-10.110527038574219,8.193695068359375
1766015515433367800,7.404367919921875,-12.102645874023438,-11.63438606262207,7.139100074768066
1766015515442974500,7.413974365234375,-11.240255355834961,-14.013083457946777,7.449128150939941
1766015515452580900,7.423580810546875,-5.38514518737793,-16.48480796813965,8.396397590637207
1766015515462187300,7.433187255859375,4.769374847412109,-17.319509506225586,8.095767974853516
1766015515471794200,7.442794189453125,17.22702407836914,-16.784320831298828,7.618919849395752
1766015515481400600,7.452400634765625,29.1270751953125,-15.834810256958008,6.922907829284668
1766015515491007200,7.46200732421875,37.83384704589844,-14.161208152770996,6.462104797363281
1766015515500613600,7.471613525390625,41.783172607421875,-12.228850364685059,8.198409080505371
1766015515510220300,7.48122021484375,40.466636657714844,-11.512489318847656,11.670561790466309
1766015515519827000,7.490826904296875,35.046852111816406,-11.49604606628418,14.22235107421875
1766015515529433300,7.500433349609375,28.330015182495117,-10.89942455291748,15.905562400817871
1766015515539040000,7.5100400390625,22.339509963989258,-10.055872917175293,17.352279663085938
1766015515548646400,7.519646484375,18.10550880432129,-8.73044490814209,17.142763137817383
1766015515558253000,7.529253173828125,15.644335746765137,-7.363977909088135,15.07924747467041
1766015515567859500,7.538859375,14.304142951965332,-6.402975082397461,12.992212295532227
1766015515577466000,7.548466064453125,13.206891059875488,-5.968514919281006,11.451519966125488
1766015515587072800,7.55807275390625,12.219724655151367,-6.05495023727417,10.156543731689453
1766015515596679200,7.56767919921875,11.070401191711426,-6.404592990875244,8.820487976074219
1766015515606285800,7.577285888671875,9.194843292236328,-6.739303112030029,7.857717990875244
1766015515615892200,7.586892333984375,6.044051170349121,-6.668423175811768,8.951767921447754
1766015515625499000,7.596498779296875,2.243098020553589,-6.280147075653076,11.662532806396484
1766015515635105500,7.60610546875,-0.13255800306797028,-7.06838321685791,15.626493453979492
1766015515644712000,7.6157119140625,-0.8964130282402039,-5.896673202514648,15.048443794250488
1766015515654318600,7.625318603515625,-1.5191190242767334,-3.591686964035034,10.542737007141113
1766015515663925000,7.634925048828125,-2.1048169136047363,-3.59329891204834,8.229644775390625
1766015515673531600,7.64453173828125,-2.9767699241638184,-5.010134220123291,5.884580135345459
1766015515683138300,7.65413818359375,-4.039362907409668,-6.802859783172607,2.7026419639587402
1766015515692744700,7.66374462890625,-5.595154762268066,-8.232246398925781,-1.649662971496582
1766015515702351400,7.673351318359375,-6.961801052093506,-9.06329345703125,-5.527820110321045
1766015515711958000,7.6829580078125,-7.889318943023682,-8.941055297851562,-7.962165832519531
1766015515721564400,7.692564453125,-8.198108673095703,-8.864055633544922,-9.684181213378906
1766015515731170800,7.7021708984375,-6.56960916519165,-9.21941089630127,-11.070988655090332
1766015515740777500,7.711777587890625,-4.2183051109313965,-9.790746688842773,-13.420685768127441
1766015515750384000,7.721384033203125,-2.9434518814086914,-10.378093719482422,-17.10055160522461
1766015515759990500,7.730990478515625,-1.9808199405670166,-10.321109771728516,-21.053403854370117
1766015515769597200,7.74059716796875,-1.3933980464935303,-10.509017944335938,-26.580583572387695
1766015515779203800,7.750203857421875,-3.2028040885925293,-12.584939956665039,-32.851951599121094
1766015515788810200,7.759810302734375,-5.914289951324463,-13.874785423278809,-35.101993560791016
1766015515798417000,7.7694169921875,-8.838861465454102,-16.599376678466797,-36.75840377807617
1766015515808023300,7.779023193359375,-10.396895408630371,-21.59722137451172,-31.262115478515625
1766015515817630000,7.7886298828125,-9.403376579284668,-25.37604331970215,-21.497549057006836
1766015515827236600,7.798236572265625,-4.947782039642334,-27.220006942749023,-10.623635292053223
1766015515836843000,7.807843017578125,1.46766996383667,-25.20660972595215,-0.6649770140647888
1766015515846449700,7.81744970703125,6.945621967315674,-21.098012924194336,11.695602416992188
1766015515865662700,7.836662841796875,13.48028564453125,-11.843465805053711,36.60424041748047
1766015515875269400,7.846269287109375,3.836656093597412,-5.3362908363342285,31.450376510620117
1766015515884876000,7.8558759765625,-11.589820861816406,-3.8398571014404297,24.360795974731445
1766015515894482400,7.865482421875,-21.42813491821289,-5.968346118927002,16.6365909576416
1766015515904089000,7.875089111328125,-21.301523208618164,-9.659295082092285,13.765363693237305
1766015515913695500,7.884695556640625,-11.720190048217773,-10.263413429260254,17.3072452545166
1766015515923302100,7.89430224609375,-1.5317779779434204,-7.138803005218506,23.691303253173828
1766015515932908500,7.903908447265625,4.97651481628418,-4.279534816741943,30.95516586303711
1766015515942515200,7.91351513671875,7.37182092666626,-2.7504351139068604,34.71567916870117
1766015515952121600,7.92312158203125,5.528071880340576,-2.6757240295410156,33.89162826538086
1766015515961728300,7.932728271484375,1.8375029563903809,-3.279309034347534,30.472402572631836
1766015515971334700,7.942334716796875,-1.4628649950027466,-4.07887077331543,26.908376693725586
1766015515980941300,7.95194140625,-3.039123058319092,-4.805405139923096,23.840576171875
1766015515990635500,7.961635498046875,-3.5772008895874023,-5.485681056976318,20.539627075195312
1766015516000154400,7.971154296875,-3.1985039710998535,-6.5360331535339355,18.148744583129883
1766015516009761000,7.980760986328125,-2.2348639965057373,-6.9727067947387695,15.620229721069336
1766015516019367700,7.99036767578125,-2.142261028289795,-6.188074111938477,11.983521461486816
1766015516028974000,7.99997412109375,-2.972762107849121,-5.891251087188721,8.988069534301758
1766015516038580700,8.009580810546876,-3.924868106842041,-6.360976219177246,6.973048210144043
1766015516048187100,8.019187255859375,-4.66569185256958,-7.12407112121582,5.3045148849487305
1766015516057793800,8.028793701171875,-5.338085174560547,-7.743091106414795,3.0390191078186035
1766015516067400400,8.038400390625,-6.706698894500732,-8.472238540649414,1.1221760511398315
1766015516077006800,8.0480068359375,-7.6441569328308105,-9.500810623168945,-0.20598700642585754
1766015516086613500,8.057613525390625,-7.596624851226807,-11.113748550415039,-1.0405149459838867
1766015516096220000,8.067219970703125,-6.869214057922363,-12.747591972351074,-2.2250471115112305
1766015516105826600,8.07682666015625,-5.822740077972412,-13.799680709838867,-3.6990749835968018
1766015516115433200,8.08643310546875,-4.915345191955566,-14.413287162780762,-5.10743522644043
1766015516125039600,8.09603955078125,-4.351551055908203,-15.023887634277344,-6.364971160888672
1766015516134646300,8.105646240234375,-4.209218978881836,-15.791312217712402,-7.750801086425781
1766015516144253000,8.1152529296875,-4.143764972686768,-15.988855361938477,-9.429917335510254
1766015516153859300,8.124859375,-3.2262399196624756,-15.297563552856445,-12.179404258728027
1766015516163465700,8.1344658203125,-1.400001049041748,-14.278624534606934,-16.371723175048828
1766015516173072400,8.144072265625,0.2284640073776245,-13.012613296508789,-21.84952163696289
1766015516182679000,8.153678955078124,0.8843100070953369,-11.122112274169922,-28.44194221496582
1766015516192285400,8.163285400390626,0.04640199989080429,-9.700770378112793,-33.926822662353516
1766015516201892000,8.17289208984375,-1.9965800046920776,-9.725098609924316,-36.572689056396484
1766015516211498800,8.182498779296875,-4.636020183563232,-11.784730911254883,-36.500213623046875
1766015516221105200,8.192105224609374,-7.197150230407715,-16.458385467529297,-33.198307037353516
1766015516230711800,8.2017119140625,-8.20228385925293,-22.217994689941406,-27.141578674316406
1766015516240318200,8.211318115234375,-8.085456848144531,-28.0782527923584,-19.64697265625
1766015516249924900,8.2209248046875,-7.061755180358887,-32.68482971191406,-10.707483291625977
1766015516259531500,8.230531494140624,-4.2545928955078125,-35.60700225830078,1.1589839458465576
1766015516269138000,8.240137939453126,4.696046829223633,-34.98614501953125,16.613805770874023
1766015516278744600,8.24974462890625,22.7445068359375,-26.720298767089844,34.860599517822266
1766015516288351000,8.25935107421875,39.704261779785156,-19.432401657104492,59.68119430541992
1766015516297957600,8.26895751953125,47.55988693237305,-11.66024398803711,71.97612762451172
1766015516317170700,8.288170654296875,24.076549530029297,-6.9657368659973145,45.58064651489258
1766015516326777300,8.29777734375,12.553157806396484,-8.988256454467773,27.881444931030273
1766015516336383700,8.3073837890625,6.2027130126953125,-8.03088665008545,14.824381828308105
1766015516345990400,8.316990478515624,1.2591240406036377,-6.412746906280518,9.189071655273438
1766015516355596800,8.3265966796875,-1.3304229974746704,-5.083216190338135,8.983415603637695
1766015516365203500,8.336203369140625,-0.5845710039138794,-4.471240997314453,10.759645462036133
1766015516374810000,8.34581005859375,1.1144460439682007,-4.650352954864502,12.918977737426758
1766015516384416500,8.35541650390625,2.575536012649536,-4.842351913452148,15.152079582214355
1766015516394023200,8.365023193359375,2.90885591506958,-4.976650238037109,16.857681274414062
1766015516403629800,8.3746298828125,1.9471039772033691,-5.051624774932861,17.349580764770508
1766015516413236200,8.384236328125,-0.06901299953460693,-5.312087059020996,15.824139595031738
1766015516422843000,8.3938427734375,-2.7250049114227295,-6.112175941467285,12.63443374633789
1766015516432425200,8.40342529296875,-5.278028964996338,-7.3464131355285645,8.941638946533203
1766015516442056000,8.413055908203125,-7.243775844573975,-8.114119529724121,5.139598846435547
1766015516451662300,8.422662353515625,-8.914546966552734,-8.68754768371582,2.3002688884735107
1766015516461269000,8.43226904296875,-9.986124038696289,-9.137368202209473,0.5048360228538513
1766015516470875600,8.441875732421876,-10.664929389953613,-9.736745834350586,-1.373397946357727
1766015516480482000,8.45148193359375,-11.122970581054688,-9.76016616821289,-2.069521903991699
1766015516490088700,8.461088623046875,-11.354836463928223,-9.778766632080078,-2.031658887863159
1766015516499695400,8.4706953125,-11.331830978393555,-9.83331298828125,-1.7416540384292603
1766015516509301800,8.4803017578125,-11.22468376159668,-10.034194946289062,-2.0504190921783447
1766015516518908400,8.489908447265625,-10.922995567321777,-10.799447059631348,-3.246445894241333
1766015516528515000,8.49951513671875,-10.58749771118164,-11.428755760192871,-5.24169397354126
1766015516538121500,8.50912158203125,-10.692797660827637,-10.275110244750977,-9.146380424499512
1766015516547728000,8.518727783203126,-11.595088958740234,-9.436874389648438,-11.966893196105957
1766015516557334500,8.52833447265625,-12.874743461608887,-8.157082557678223,-13.606802940368652
1766015516566941200,8.537941162109375,-14.14592170715332,-5.907543182373047,-12.301156044006348
1766015516576547600,8.547547607421874,-16.34231948852539,-4.5768141746521,-11.772622108459473
1766015516586154200,8.557154296875,-18.94791603088379,-5.092308044433594,-11.457880020141602
1766015516595761000,8.566760986328125,-20.86211585998535,-5.9326958656311035,-8.699729919433594
1766015516605367300,8.5763671875,-21.610158920288086,-8.247450828552246,-7.372745990753174
1766015516614974200,8.58597412109375,-19.838638305664062,-9.69518756866455,-5.649138927459717
1766015516624580600,8.59558056640625,-15.715749740600586,-11.621607780456543,-4.41182804107666
1766015516634187000,8.60518701171875,-11.724650382995605,-14.089609146118164,-1.3238470554351807
1766015516643793700,8.614793701171875,-9.798826217651367,-16.595998764038086,2.2428150177001953
1766015516653400300,8.624400390625,-9.067949295043945,-19.311992645263672,3.87520694732666
1766015516663006700,8.6340068359375,-7.786354064941406,-22.267744064331055,3.3836770057678223
1766015516672613000,8.643613037109375,-2.8521430492401123,-25.532041549682617,1.5563379526138306
1766015516682220000,8.653219970703125,8.37651252746582,-27.921812057495117,-1.384464979171753
1766015516691826400,8.662826416015625,23.43363380432129,-28.743101119995117,-4.626964092254639
1766015516701432800,8.672432861328126,36.59706115722656,-27.177343368530273,-6.030767917633057
1766015516711039500,8.68203955078125,42.66364288330078,-24.87548065185547,-4.775320053100586
1766015516720646100,8.691646240234375,42.40169906616211,-24.318132400512695,-3.0660219192504883
1766015516730252500,8.70125244140625,38.24388885498047,-25.71112632751465,-3.410943031311035
1766015516739859200,8.710859130859374,30.042621612548828,-26.193584442138672,-4.599127769470215
1766015516749465600,8.720465576171875,19.633113861083984,-25.13145637512207,-5.9275641441345215
1766015516759072300,8.730072265625,11.03352165222168,-23.535558700561523,-7.275267124176025
1766015516768679000,8.739678955078125,6.4149699211120605,-21.67656135559082,-7.589686870574951
1766015516778285600,8.74928564453125,5.896452903747559,-19.108097076416016,-6.761233806610107
1766015516787892000,8.75889208984375,7.2619948387146,-18.255996704101562,-5.417960166931152
1766015516797498400,8.768498291015625,9.210945129394531,-17.75810432434082,-0.684719979763031
1766015516807105000,8.77810498046875,10.975822448730469,-17.88575553894043,3.7540628910064697
1766015516816711700,8.787711669921874,11.909876823425293,-16.21477699279785,9.234492301940918
1766015516826318000,8.797318115234376,11.830709457397461,-14.18414306640625,14.982013702392578
1766015516835924700,8.8069248046875,10.642951011657715,-11.884383201599121,17.624555587768555
1766015516845531400,8.816531494140625,7.843832969665527,-9.691526412963867,17.277095794677734
1766015516855137800,8.8261376953125,3.4772379398345947,-7.9985527992248535,16.132137298583984
1766015516864744400,8.835744384765626,-2.0407509803771973,-6.86684513092041,16.17729949951172
1766015516874351000,8.84535107421875,-5.544816017150879,-4.878174781799316,17.54239845275879
1766015516883957500,8.85495751953125,-6.740096092224121,-2.5330770015716553,19.084993362426758
1766015516893564200,8.864564208984374,-6.682875156402588,-0.8305569887161255,20.075708389282227
1766015516903170600,8.874170654296876,-6.576656818389893,-0.01623399928212166,19.236841201782227
1766015516912777200,8.883777099609375,-7.025690078735352,0.02344300039112568,16.79610824584961
1766015516922384000,8.8933837890625,-8.178062438964844,-0.5476080179214478,13.940000534057617
1766015516931990300,8.902990234375,-9.4556884765625,-1.2353090047836304,12.19257640838623
1766015516941597000,8.912596923828126,-10.13696575164795,-1.488118052482605,11.159225463867188
1766015516951203300,8.922203369140625,-10.243165016174316,-2.0642430782318115,9.280657768249512
1766015516960810000,8.93181005859375,-10.676277160644531,-2.9752860069274902,7.209107875823975
1766015516970416400,8.94141650390625,-11.269010543823242,-4.5495171546936035,4.72282600402832
1766015516980023000,8.95102294921875,-11.509652137756348,-5.940575122833252,2.51761794090271
1766015516989629400,8.96062939453125,-11.50455093383789,-6.383510112762451,1.0247279405593872
1766015516999236000,8.970236083984375,-11.758617401123047,-6.554741859436035,-0.37922200560569763
1766015517008842800,8.9798427734375,-12.973793029785156,-7.160555839538574,-1.4857929944992065
1766015517018449200,8.98944921875,-14.42558479309082,-8.102757453918457,-1.8907489776611328
1766015517028055800,8.999055908203125,-15.994483947753906,-8.826070785522461,-1.9452929496765137
1766015517037662500,9.008662353515625,-16.533977508544922,-9.736406326293945,-2.164686918258667
1766015517047268900,9.018268798828124,-15.999059677124023,-11.27833366394043,-3.198302984237671
1766015517056875500,9.02787548828125,-14.629032135009766,-13.268710136413574,-4.09420108795166
1766015517066482000,9.03748193359375,-12.530345916748047,-15.132575035095215,-4.1425371170043945
1766015517076088600,9.047088623046875,-7.112977027893066,-16.784793853759766,-6.419075965881348
1766015517085695200,9.0566953125,1.0085760354995728,-18.651397705078125,-12.249431610107422
1766015517095301600,9.066301513671876,10.962675094604492,-20.31421661376953,-18.561071395874023
1766015517104908300,9.075908203125,21.426387786865234,-20.789234161376953,-23.49612045288086
1766015517114515000,9.085514892578125,28.327259063720703,-20.303150177001953,-24.10223960876465
1766015517124121300,9.095121337890625,29.274473190307617,-21.715801239013672,-19.569904327392578
1766015517133728000,9.10472802734375,24.973344802856445,-23.670198440551758,-12.71767520904541
1766015517143334700,9.114334716796876,18.81093978881836,-24.3284912109375,-4.145121097564697
1766015517152941000,9.123941162109375,14.422269821166992,-23.660703659057617,2.464951992034912
1766015517162547500,9.13354736328125,12.178750038146973,-22.03692626953125,7.485086917877197
1766015517172154400,9.143154296875,11.239212036132812,-18.594987869262695,11.083194732666016
1766015517181760800,9.1527607421875,10.515398025512695,-14.774321556091309,13.35544204711914
1766015517191367200,9.1623671875,9.535845756530762,-11.043651580810547,14.651201248168945
1766015517200973800,9.171973876953125,7.923224925994873,-7.588548183441162,14.384319305419922
1766015517210580500,9.18158056640625,5.504288196563721,-5.204971790313721,12.973427772521973
1766015517220187000,9.191186767578126,2.6508278846740723,-3.713139057159424,11.158258438110352
1766015517229793300,9.200793212890625,0.24693100154399872,-2.940335988998413,9.214064598083496
1766015517239400000,9.21039990234375,-1.4042539596557617,-2.802643060684204,7.015027046203613
1766015517249006600,9.220006591796874,-2.4892709255218506,-2.689465045928955,4.52867317199707
1766015517258613200,9.22961328125,-3.2130980491638184,-2.476677894592285,3.232975959777832
1766015517268219600,9.2392197265625,-3.5576961040496826,-2.6423120498657227,2.7405340671539307
1766015517277826300,9.248826416015625,-3.9672129154205322,-1.974364995956421,3.89668607711792
1766015517287432700,9.2584326171875,-4.707870960235596,-1.5286680459976196,6.3101301193237305
1766015517297039400,9.268039306640626,-5.762218952178955,-0.6657429933547974,8.967942237854004
1766015517306646000,9.27764599609375,-6.746310234069824,-0.8314499855041504,11.15620231628418
1766015517316252400,9.28725244140625,-7.506904125213623,-1.6547329425811768,10.476892471313477
1766015517325859000,9.296859130859374,-7.869726181030273,-3.6761538982391357,6.5800089836120605
1766015517335465700,9.3064658203125,-8.445618629455566,-5.776406764984131,2.9296939373016357
1766015517345072000,9.316072021484375,-8.794374465942383,-7.494339942932129,-0.3699609935283661
1766015517354678500,9.325678466796875,-8.577241897583008,-8.822776794433594,-3.7313029766082764
1766015517364285400,9.335285400390624,-8.030780792236328,-9.277790069580078,-6.557589054107666
1766015517373891800,9.344891845703126,-7.768192768096924,-9.133890151977539,-8.396566390991211
1766015517383498200,9.354498291015625,-8.928793907165527,-9.272087097167969,-9.230270385742188
1766015517393105200,9.364105224609375,-10.697783470153809,-9.43105411529541,-11.357001304626465
1766015517402711600,9.373711669921875,-12.666208267211914,-9.181138038635254,-14.025432586669922
1766015517412318000,9.38331787109375,-14.16292953491211,-9.424905776977539,-15.809404373168945
1766015517421924900,9.3929248046875,-13.906376838684082,-10.495271682739258,-17.640371322631836
1766015517431531000,9.402531005859375,-11.118349075317383,-12.270867347717285,-18.753406524658203
1766015517441137700,9.4121376953125,-6.70747184753418,-14.430882453918457,-18.600980758666992
1766015517450744300,9.421744384765624,-1.1817430257797241,-16.889572143554688,-18.02074432373047
1766015517460350700,9.431350830078125,5.909089088439941,-19.700868606567383,-16.978364944458008
1766015517469957400,9.440957275390625,15.360360145568848,-22.380657196044922,-14.226156234741211
1766015517479564000,9.45056396484375,25.95517349243164,-23.955106735229492,-9.089938163757324
1766015517489170400,9.46017041015625,34.13150405883789,-24.258214950561523,-0.9807450175285339
1766015517498777000,9.469777099609376,35.83488845825195,-23.61589241027832,7.744219779968262
1766015517508383700,9.4793837890625,30.715721130371094,-21.195905685424805,14.344915390014648
1766015517517990100,9.488990234375,23.21588134765625,-18.988431930541992,20.530414581298828
1766015517527596800,9.4985966796875,15.64979362487793,-13.894399642944336,19.62908172607422
1766015517537203200,9.508203125,10.015411376953125,-8.94079303741455,14.785913467407227
1766015517546809900,9.517809814453125,6.941847801208496,-6.265986919403076,10.252466201782227
1766015517556416300,9.527416259765625,6.205357074737549,-4.925168037414551,6.922579765319824
1766015517566023000,9.53702294921875,5.842901229858398,-4.367070198059082,5.088763236999512
1766015517575629300,9.54662939453125,4.354596138000488,-4.2071990966796875,5.17193078994751
1766015517585236200,9.556236328125,2.442318916320801,-3.9081790447235107,5.859845161437988
1766015517594842600,9.565842529296875,0.6776340007781982,-3.5791659355163574,6.544490814208984
1766015517604449300,9.57544921875,-1.0952099561691284,-3.46230411529541,6.9298930168151855
1766015517614055700,9.5850556640625,-3.124924898147583,-3.436556100845337,6.727118968963623
1766015517623662300,9.594662353515625,-5.2313008308410645,-3.370748996734619,5.461816787719727
1766015517633268700,9.604268798828125,-7.737674236297607,-3.488867998123169,3.843761920928955
1766015517642875400,9.61387548828125,-10.084409713745117,-3.8655641078948975,1.9278210401535034
1766015517652481800,9.623481689453126,-12.217294692993164,-4.235793113708496,0.2042829990386963
1766015517662088400,9.63308837890625,-14.475822448730469,-4.357128143310547,-1.526986002922058
1766015517671695000,9.642695068359375,-16.67530059814453,-4.433704853057861,-3.0134079456329346
1766015517681301500,9.652301513671874,-19.350830078125,-4.040597915649414,-3.7436509132385254
1766015517690908200,9.661908203125,-21.156715393066406,-3.935307025909424,-3.6306509971618652
1766015517700514800,9.671514892578125,-21.340137481689453,-3.969197988510132,-3.5275421142578125
1766015517710121200,9.681121337890625,-20.649982452392578,-4.296534061431885,-2.887718915939331
1766015517719727900,9.690727783203124,-19.336217880249023,-5.038106918334961,-0.8693109750747681
1766015517729334500,9.70033447265625,-17.019718170166016,-6.608382225036621,1.6772079467773438
1766015517738941000,9.70994091796875,-14.658798217773438,-8.649845123291016,3.7227699756622314
1766015517748547600,9.719547607421875,-11.672137260437012,-10.027647018432617,5.472713947296143
1766015517758154000,9.729154052734375,-9.010634422302246,-11.635820388793945,8.08980941772461
1766015517767760600,9.7387607421875,-5.755022048950195,-14.27030086517334,11.077423095703125
1766015517777367300,9.7483671875,0.5440260171890259,-16.73301124572754,14.397065162658691
1766015517786973700,9.7579736328125,11.776887893676758,-17.63880729675293,17.628313064575195
1766015517796580000,9.767580078125,27.045984268188477,-16.736955642700195,21.409278869628906
1766015517806186800,9.777186767578126,43.079925537109375,-14.403739929199219,23.43288803100586
1766015517815793400,9.78679345703125,54.66495895385742,-17.230655670166016,25.207361221313477
1766015517825400000,9.796400146484375,54.56511688232422,-20.596118927001953,19.50489616394043
1766015517835006500,9.80600634765625,48.12624740600586,-24.47673797607422,12.613615036010742
1766015517844613000,9.815613037109374,42.356224060058594,-26.687152862548828,6.905947208404541
1766015517854219800,9.8252197265625,36.491600036621094,-26.49272918701172,0.31041601300239563
1766015517863826200,9.834826171875,28.811704635620117,-25.46683692932129,-5.686972141265869
1766015517873432800,9.844432861328125,19.966407775878906,-23.744754791259766,-10.462717056274414
1766015517883039200,9.854039306640624,11.729185104370117,-20.564329147338867,-15.021785736083984
1766015517892646000,9.86364599609375,6.179354190826416,-17.430580139160156,-18.996217727661133
1766015517902252300,9.873252197265625,5.045209884643555,-15.513307571411133,-21.4150333404541
1766015517911859000,9.88285888671875,7.875472068786621,-13.950270652770996,-22.686052322387695
1766015517921465600,9.892465576171874,11.560136795043945,-13.35250186920166,-21.545372009277344
1766015517931072000,9.902072021484376,13.22242259979248,-13.9199857711792,-18.94857406616211
1766015517940678700,9.9116787109375,13.268851280212402,-15.04621696472168,-16.594066619873047
1766015517950285000,9.92128515625,12.541769027709961,-16.322526931762695,-14.527261734008789
1766015517959891700,9.9308916015625,11.929381370544434,-17.735673904418945,-12.40526008605957
1766015517969498400,9.940498291015626,11.982828140258789,-19.22751808166504,-10.005180358886719
1766015517979104800,9.950104736328125,13.105608940124512,-21.158485412597656,-8.550003051757812
1766015517988711200,9.959711181640625,15.844131469726562,-23.703231811523438,-6.989709854125977
1766015517998318000,9.969318115234374,18.861309051513672,-26.379301071166992,-2.6957991123199463
1766015518007924500,9.978924560546876,20.045623779296875,-27.87995719909668,6.398769855499268
1766015518017531000,9.98853076171875,19.308631896972656,-27.148569107055664,18.66173553466797
1766015518027137500,9.998137451171875,17.10631561279297,-24.201513290405273,32.84962844848633
1766015518036744000,10.007743896484374,13.355031967163086,-19.954153060913086,45.36035919189453
1766015518046350600,10.0173505859375,8.535699844360352,-15.97156810760498,52.28150939941406
1766015518055957200,10.026957275390625,3.640899896621704,-12.955784797668457,52.03812026977539
1766015518065564000,10.03656396484375,-0.34573298692703247,-11.16616153717041,45.7684326171875
1766015518075170300,10.04617041015625,-3.5131609439849854,-9.924757957458496,37.06864547729492
1766015518084776700,10.055776611328126,-6.523290157318115,-8.200663566589355,29.288211822509766
1766015518094383400,10.06538330078125,-7.864352226257324,-6.104601860046387,24.23398780822754
1766015518103990000,10.074989990234375,-7.721622943878174,-4.2673468589782715,22.206039428710938
1766015518113596400,10.084596435546874,-7.360489845275879,-4.201420783996582,20.556154251098633
1766015518123203000,10.094203125,-6.724438190460205,-4.7640380859375,18.081729888916016
1766015518132809700,10.103809814453125,-7.352219104766846,-5.340118885040283,15.76068115234375
1766015518142416100,10.113416015625,-10.728459358215332,-6.124952793121338,13.078895568847656
1766015518152022500,10.1230224609375,-14.69258975982666,-6.571380138397217,10.200601577758789
1766015518161629400,10.13262939453125,-16.644712448120117,-6.295805931091309,7.126422882080078
1766015518171235800,10.14223583984375,-19.870174407958984,-4.789793014526367,1.7151449918746948
1766015518180842200,10.15184228515625,-28.116104125976562,-4.305017948150635,-4.053445816040039
1766015518190449000,10.161448974609375,-35.778743743896484,-4.671951770782471,-7.305156230926514
1766015518200055600,10.1710556640625,-39.00388717651367,-3.498600959777832,-9.9026517868042
1766015518209662000,10.180661865234375,-37.8353157043457,-2.7607309818267822,-11.830890655517578
1766015518219268600,10.1902685546875,-33.88774108886719,-2.9456989765167236,-12.833995819091797
1766015518228875000,10.199875,-28.150676727294922,-3.032608985900879,-12.704208374023438
1766015518238481700,10.209481689453124,-22.34006118774414,-3.259376049041748,-10.609966278076172
1766015518248088000,10.219088134765625,-18.503189086914062,-3.26065993309021,-6.129978179931641
1766015518257694700,10.22869482421875,-17.68672752380371,-3.305569887161255,-1.8585259914398193
1766015518267301400,10.23830126953125,-18.069896697998047,-5.046043872833252,1.538696050643921
1766015518276907800,10.24790771484375,-18.325929641723633,-8.50231647491455,3.17697811126709
1766015518286514400,10.257514404296876,-17.310890197753906,-12.653447151184082,3.8583829402923584
1766015518296121000,10.26712109375,-12.567672729492188,-16.699880599975586,3.421226978302002
1766015518305727500,10.2767275390625,-4.1032280921936035,-20.009859085083008,2.1871349811553955
1766015518315334100,10.286334228515624,6.785764217376709,-21.780044555664062,2.1753900051116943
1766015518324940800,10.29594091796875,19.85986328125,-21.623432159423828,5.160977840423584
1766015518334547200,10.305547119140625,35.46310806274414,-20.32551383972168,11.020524024963379
1766015518344153900,10.31515380859375,52.85447692871094,-18.628469467163086,15.8574800491333
1766015518353760300,10.32476025390625,62.79111099243164,-14.74807357788086,15.198311805725098
1766015518363367000,10.334366943359376,58.66824722290039,-12.431196212768555,11.800984382629395
1766015518372973600,10.3439736328125,48.28638458251953,-14.95451545715332,11.393453598022461
1766015518382580000,10.353580078125,35.674068450927734,-14.887388229370117,5.837907791137695
1766015518392186600,10.3631865234375,25.55587387084961,-14.246468544006348,0.5636150240898132
1766015518401793000,10.37279296875,19.549701690673828,-13.296610832214355,-3.626396894454956
1766015518411399700,10.382399658203125,16.42896270751953,-11.514495849609375,-7.884932994842529
1766015518421006300,10.39200634765625,15.294129371643066,-11.05938720703125,-8.682419776916504
1766015518430612700,10.40161279296875,14.973382949829102,-7.782002925872803,-10.964385986328125
1766015518440219400,10.411219482421876,15.383768081665039,-5.170748233795166,-11.138157844543457
1766015518449825800,10.42082568359375,16.64582633972168,-4.782193183898926,-9.157089233398438
1766015518459432400,10.430432373046875,18.989355087280273,-5.877925872802734,-7.4266791343688965
1766015518469038800,10.440038818359374,21.301925659179688,-7.544382095336914,-7.141111850738525
1766015518478645500,10.4496455078125,21.7470645904541,-8.897106170654297,-8.758209228515625
1766015518488252200,10.459252197265625,19.692121505737305,-10.0313720703125,-11.240779876708984
1766015518497858600,10.468858642578125,16.597431182861328,-10.523650169372559,-12.840023040771484
1766015518507465200,10.47846533203125,14.037524223327637,-10.266922950744629,-12.476003646850586
1766015518517071600,10.488071533203126,11.776962280273438,-9.50544261932373,-10.503310203552246
1766015518526678300,10.49767822265625,9.997411727905273,-8.939631462097168,-8.786617279052734
1766015518536284700,10.50728466796875,10.33515453338623,-8.031137466430664,-5.578717231750488
1766015518545891300,10.516891357421875,12.516972541809082,-7.435540199279785,-0.4652239978313446
1766015518555497700,10.526497802734376,16.046367645263672,-7.047482967376709,5.820062160491943
1766015518565104600,10.536104736328125,20.016521453857422,-7.183176040649414,12.964991569519043
1766015518574711000,10.5457109375,23.122936248779297,-7.037847995758057,20.188800811767578
1766015518584317400,10.5553173828125,22.627172470092773,-7.728014945983887,29.656606674194336
1766015518593924000,10.564924072265624,19.49066734313965,-7.029421806335449,38.00642395019531
1766015518603530800,10.57453076171875,14.23684024810791,-3.916424036026001,42.016258239746094
1766015518613137200,10.58413720703125,6.664478778839111,-0.6869779825210571,41.74460983276367
1766015518622743800,10.593743896484375,-1.975322961807251,1.2677220106124878,37.93967819213867
1766015518632350500,10.6033505859375,-9.201025009155273,2.5822410583496094,31.29866600036621
1766015518641956900,10.612956787109376,-14.251858711242676,3.467966079711914,24.149145126342773
1766015518651563300,10.622563232421875,-17.523534774780273,4.223209857940674,17.237857818603516
1766015518661170200,10.632170166015625,-18.32410430908203,4.739751815795898,11.491939544677734
1766015518670776600,10.641776611328124,-17.779102325439453,4.407381057739258,8.164936065673828
1766015518680383200,10.65138330078125,-17.57561492919922,3.6554930210113525,5.884535789489746
1766015518689989600,10.66098974609375,-16.886066436767578,3.246476888656616,3.9577460289001465
1766015518699596000,10.670595947265625,-15.686296463012695,3.049556016921997,2.257338047027588
1766015518709202700,10.68020263671875,-15.414810180664062,3.1206250190734863,1.3061130046844482
1766015518718809300,10.689809326171876,-16.5753173828125,3.263331890106201,0.733817994594574
1766015518728415700,10.699415771484375,-18.7530517578125,3.4888980388641357,0.40047600865364075
1766015518738022400,10.7090224609375,-20.799467086791992,3.3498120307922363,-0.19764399528503418
1766015518747628800,10.71862890625,-22.607131958007812,2.9457008838653564,-2.335719108581543
1766015518757235500,10.7282353515625,-24.943735122680664,2.5317840576171875,-5.591948986053467
1766015518766841900,10.737841796875,-26.588451385498047,2.9708049297332764,-8.46618938446045
1766015518776448500,10.747448486328125,-25.582637786865234,3.7500240802764893,-9.564632415771484
1766015518786055200,10.75705517578125,-22.73952865600586,3.6041109561920166,-7.198999881744385
1766015518795661600,10.76666162109375,-19.588851928710938,2.5970098972320557,-2.4330248832702637
1766015518805268200,10.776268310546875,-15.798772811889648,1.2473200559616089,1.1621530055999756
1766015518814874600,10.78587451171875,-12.311309814453125,-0.9289929866790771,3.7397658824920654
1766015518824481300,10.795481201171874,-8.557021141052246,-3.548232078552246,5.208645820617676
1766015518834088000,10.805087890625,-2.8249049186706543,-6.445359230041504,6.442346096038818
1766015518843694300,10.8146943359375,8.051590919494629,-8.15139389038086,8.34953784942627
1766015518853301000,10.824301025390625,22.946884155273438,-7.545415878295898,10.015275955200195
1766015518862907400,10.833907470703124,36.02116394042969,-6.393185138702393,11.905633926391602
1766015518872514000,10.84351416015625,42.984046936035156,-6.605702877044678,12.038138389587402
1766015518882120700,10.85312060546875,44.232635498046875,-7.589396953582764,9.923260688781738
1766015518891727000,10.86272705078125,40.561279296875,-9.884052276611328,5.16147518157959
1766015518901333800,10.872333740234374,33.86635971069336,-12.46511459350586,-1.60856294631958
1766015518910940200,10.881940185546876,27.318248748779297,-12.530420303344727,-9.018473625183105
1766015518920546800,10.891546875,21.42226791381836,-10.306724548339844,-14.96513843536377
1766015518930153500,10.901153564453125,16.383115768432617,-8.214946746826172,-17.96068000793457
1766015518939759900,10.910759765625,13.214885711669922,-6.494017124176025,-18.507034301757812
1766015518949366500,10.920366455078126,11.94526481628418,-5.311275005340576,-17.81353759765625
1766015518958973000,10.929972900390625,11.490708351135254,-4.96125602722168,-16.498655319213867
1766015518968579600,10.93957958984375,10.698836326599121,-4.779050827026367,-15.316364288330078
1766015518978186200,10.949186279296875,9.527533531188965,-4.482741832733154,-15.16920280456543
1766015518987792600,10.958792724609374,8.452089309692383,-4.9262847900390625,-14.681591033935547
1766015518997399300,10.9683994140625,10.608039855957031,-4.771791934967041,-13.487668991088867
1766015519007005700,10.978005615234375,17.611286163330078,-4.208907127380371,-10.76463508605957
1766015519016612000,10.987612060546875,26.70647621154785,-4.187043190002441,-7.486780166625977
1766015519026218800,10.99721875,34.32626724243164,-4.746620178222656,-1.9472019672393799
1766015519035825400,11.006825439453126,36.664180755615234,-5.4391069412231445,4.122675895690918
1766015519045431800,11.016431884765625,32.075538635253906,-5.563354015350342,7.5294108390808105
1766015519055038500,11.02603857421875,22.999553680419922,-4.950725078582764,8.175320625305176
1766015519064645000,11.03564501953125,13.744142532348633,-3.5313539505004883,6.812264919281006
1766015519074251500,11.04525146484375,5.7455668449401855,-1.3489789962768555,4.266014099121094
1766015519083858200,11.054858154296875,-0.5508599877357483,0.10078799724578857,2.3789570331573486
1766015519093464600,11.064464599609375,-3.546013116836548,0.9008499979972839,1.4269579648971558
1766015519103071200,11.0740712890625,-4.322478771209717,1.6586079597473145,1.5609019994735718
1766015519112677600,11.083677734375,-5.142125129699707,2.3437349796295166,3.2650229930877686
1766015519122284300,11.0932841796875,-6.797685146331787,2.686052083969116,5.52815580368042
1766015519131891000,11.102890869140625,-10.116795539855957,2.717602014541626,6.914991855621338
1766015519141497300,11.112497314453124,-15.276052474975586,2.501499891281128,5.8662872314453125
1766015519151103700,11.122103759765626,-22.066051483154297,2.230293035507202,2.280550956726074
1766015519160710700,11.131710693359375,-29.343914031982422,1.930933952331543,-2.406541109085083
1766015519170317000,11.141317138671875,-34.931026458740234,2.2909700870513916,-7.436427116394043
1766015519179923500,11.15092333984375,-37.8503303527832,2.9772419929504395,-11.062967300415039
1766015519189530000,11.160530029296876,-37.46896743774414,3.2828540802001953,-12.139488220214844
1766015519199136800,11.17013671875,-34.41341781616211,2.9002439975738525,-10.959869384765625
1766015519208743200,11.1797431640625,-30.106060028076172,1.8474270105361938,-8.070865631103516
1766015519218349800,11.189349853515624,-26.247520446777344,0.45583900809288025,-5.202877044677734
1766015519227956500,11.19895654296875,-22.09450912475586,-1.577293038368225,-3.263978958129883
1766015519237563000,11.20856298828125,-15.8309326171875,-4.146223068237305,-3.0682640075683594
1766015519247169500,11.21816943359375,-7.514768123626709,-5.702000141143799,-3.3224480152130127
1766015519256776200,11.227776123046874,0.3246389925479889,-5.524131774902344,-4.436540126800537
1766015519266382600,11.237382568359376,7.086550235748291,-6.108006954193115,-5.774995803833008
1766015519275989000,11.246989013671875,14.205907821655273,-7.563981056213379,-6.697443962097168
1766015519285596000,11.256595947265625,20.86612319946289,-9.332428932189941,-6.228291988372803
1766015519295202300,11.266202392578125,29.406940460205078,-11.349051475524902,-5.023073196411133
1766015519304808700,11.27580859375,42.111572265625,-12.216073036193848,-3.5788660049438477
1766015519314415400,11.285415283203125,54.81193542480469,-11.533967018127441,-1.0284119844436646
1766015519324022000,11.29502197265625,61.122276306152344,-9.691964149475098,1.1217470169067383
1766015519333628400,11.30462841796875,57.75569534301758,-8.664454460144043,1.2504509687423706
1766015519343235000,11.314235107421876,46.14271545410156,-8.100801467895508,-0.6256610155105591
1766015519352841700,11.323841796875,32.07429504394531,-6.903557777404785,-2.7353920936584473
1766015519362448100,11.3334482421875,19.647899627685547,-4.604729175567627,-3.6747679710388184
1766015519372054800,11.3430546875,10.663318634033203,-1.9807169437408447,-2.9781370162963867
1766015519381661400,11.352661376953124,5.779585838317871,0.23109200596809387,-1.4315730333328247
1766015519391267800,11.362267822265625,3.1615710258483887,1.9817689657211304,-0.16904599964618683
1766015519400874500,11.37187451171875,-0.08025000244379044,2.555305004119873,1.0867929458618164
1766015519410481200,11.381481201171875,-4.307476997375488,2.778343915939331,2.2538740634918213
1766015519420087600,11.391087646484374,-9.74548053741455,3.2282540798187256,2.07309889793396
1766015519429694000,11.40069384765625,-16.477313995361328,4.053366184234619,1.1543710231781006
1766015519439300600,11.410300537109375,-23.11943817138672,5.0595269203186035,-0.9856640100479126
1766015519448907300,11.4199072265625,-27.720726013183594,5.98239803314209,-3.5693929195404053
1766015519458513700,11.429513671875,-30.282506942749023,6.673148155212402,-5.600399971008301
1766015519468120300,11.439120361328126,-31.276060104370117,7.0630998611450195,-6.33612585067749
1766015519477726700,11.448726806640625,-31.02012825012207,7.03046178817749,-6.638667106628418
1766015519487333400,11.45833349609375,-30.223649978637695,6.29826021194458,-6.6257548332214355
1766015519496939800,11.467939697265624,-28.867361068725586,5.019516944885254,-6.12100887298584
1766015519506546400,11.47754638671875,-25.939577102661133,3.6008660793304443,-5.49196720123291
1766015519516152800,11.48715283203125,-21.605321884155273,2.030700922012329,-5.033164024353027
1766015519525759500,11.496759521484375,-16.328859329223633,0.2524319887161255,-4.668476104736328
1766015519535366100,11.5063662109375,-10.644916534423828,-1.4044289588928223,-5.112971782684326
1766015519544972800,11.515972900390626,-6.044662952423096,-3.2661399841308594,-6.771261215209961
1766015519554579200,11.5255791015625,-0.5097230076789856,-5.6769890785217285,-9.111211776733398
1766015519564185900,11.535185791015625,8.533279418945312,-8.450385093688965,-9.211986541748047
1766015519573792300,11.544792236328124,20.720882415771484,-11.455394744873047,-6.000117778778076
1766015519583399000,11.55439892578125,34.484901428222656,-13.26991081237793,-1.2478209733963013
1766015519593005300,11.56400537109375,48.79339599609375,-13.543905258178711,2.060058116912842
1766015519602612000,11.573612060546875,60.017555236816406,-13.445414543151855,3.2781670093536377
1766015519612218400,11.58321826171875,63.97262954711914,-13.742587089538574,1.003298044204712
1766015519621825000,11.592824951171876,59.9614143371582,-13.197321891784668,-3.658576011657715
1766015519631431400,11.602431396484375,49.95851135253906,-11.894744873046875,-7.250328063964844
1766015519641038300,11.612038330078125,36.64885711669922,-10.244150161743164,-7.085293769836426
1766015519650644700,11.621644775390624,23.791105270385742,-7.716681003570557,-3.710618019104004
1766015519660251100,11.631251220703126,14.570306777954102,-4.674832820892334,-0.8499420285224915
1766015519669857800,11.64085791015625,9.177179336547852,-2.1202309131622314,1.5336519479751587
1766015519679464400,11.65046435546875,5.01871395111084,0.21840299665927887,2.6653859615325928
1766015519689070800,11.66007080078125,0.37492600083351135,1.961150050163269,2.3235158920288086
1766015519698677500,11.669677490234376,-4.158174991607666,3.065203905105591,1.7177590131759644
1766015519708284000,11.679283935546875,-9.21315860748291,4.16956090927124,1.3466659784317017
1766015519717890600,11.688890625,-16.003398895263672,5.5508527755737305,0.8155900239944458
1766015519727497200,11.698497314453125,-23.31650733947754,6.614029884338379,-0.6827999949455261
1766015519737103600,11.708103515625,-29.10662078857422,7.559761047363281,-2.7531189918518066
1766015519746710000,11.7177099609375,-33.021644592285156,8.462132453918457,-4.952035903930664
1766015519756316700,11.727316650390625,-34.59783172607422,8.774380683898926,-6.1324849128723145
1766015519765923300,11.73692333984375,-33.68134689331055,8.240238189697266,-5.942220211029053
1766015519775530000,11.746530029296874,-31.141151428222656,6.954710006713867,-5.379485130310059
1766015519785136400,11.756136474609375,-27.729366302490234,5.2802019119262695,-4.8056111335754395
1766015519794743000,11.765742919921875,-24.344881057739258,3.931209087371826,-4.092929840087891
1766015519804349400,11.775349365234375,-21.914718627929688,2.4476890563964844,-3.118957996368408
1766015519813956000,11.7849560546875,-19.82620620727539,0.737995982170105,-2.615027904510498
1766015519823562500,11.7945625,-18.051931381225586,-1.0996840000152588,-2.894886016845703
1766015519833169200,11.804169189453125,-16.525264739990234,-3.562896966934204,-3.07635498046875
1766015519842775800,11.81377587890625,-13.862526893615723,-7.312073230743408,-3.6316399574279785
1766015519852382200,11.82338232421875,-5.630327224731445,-10.849838256835938,-5.067215919494629
1766015519861988900,11.83298876953125,7.740777015686035,-12.850564956665039,-7.085447788238525
1766015519871595300,11.84259521484375,23.17924690246582,-13.1771821975708,-7.617153167724609
1766015519881202000,11.852201904296875,34.69341278076172,-13.780137062072754,-5.575650215148926
1766015519890808600,11.86180859375,37.58652114868164,-14.961307525634766,-3.272620916366577
1766015519900415000,11.8714150390625,34.91758346557617,-16.058555603027344,-2.0470409393310547
1766015519910021400,11.881021484375,31.676179885864258,-17.140594482421875,-1.916875958442688
1766015519919628300,11.890628173828125,30.28199005126953,-17.61493492126465,-3.318993091583252
1766015519929234700,11.900234619140624,31.707969665527344,-17.26018714904785,-5.885187149047852
1766015519938841000,11.909841064453126,34.256446838378906,-15.884712219238281,-8.570398330688477
1766015519948447700,11.91944775390625,35.829200744628906,-13.648932456970215,-10.715033531188965
1766015519958054400,11.929054443359375,34.51417541503906,-11.761296272277832,-11.571922302246094
1766015519967660800,11.938660888671874,30.195167541503906,-10.402385711669922,-11.604574203491211
1766015519977267500,11.948267333984376,23.77688980102539,-8.760297775268555,-10.654838562011719
1766015519986874000,11.9578740234375,16.407970428466797,-6.707742214202881,-8.325236320495605
1766015519996480500,11.96748046875,10.17194652557373,-4.3107781410217285,-6.3203840255737305
1766015520006087200,11.977087158203124,5.821255207061768,-1.7952409982681274,-4.58144998550415
1766015520015693600,11.986693603515626,1.4629460573196411,1.1253900527954102,-1.7148840427398682
1766015520025300200,11.99630029296875,-3.4879019260406494,3.7043049335479736,1.1074140071868896
1766015520034907000,12.005906982421875,-7.546928882598877,5.925262928009033,2.332073926925659
1766015520044513500,12.015513427734374,-9.125160217285156,7.841227054595947,1.5830620527267456
1766015520054120000,12.025119873046876,-10.053489685058594,9.667009353637695,0.33163100481033325
1766015520063726600,12.0347265625,-12.255083084106445,10.628519058227539,-0.846759021282196
1766015520073333000,12.0443330078125,-14.989154815673828,10.459056854248047,-2.458211898803711
1766015520082939600,12.053939697265625,-15.967988967895508,9.967485427856445,-4.714249134063721
1766015520092546000,12.063546142578126,-15.475741386413574,9.746296882629395,-7.409069061279297
1766015520102153000,12.073153076171875,-15.309354782104492,9.82805347442627,-9.537550926208496
1766015520111759400,12.08275927734375,-16.9537410736084,9.687299728393555,-10.43337631225586
1766015520121365800,12.09236572265625,-19.574451446533203,8.842475891113281,-9.960284233093262
1766015520130972400,12.101972412109374,-20.73732566833496,7.65274715423584,-8.885998725891113
1766015520140579000,12.1115791015625,-20.439645767211914,6.155848979949951,-8.377219200134277
1766015520150185500,12.121185546875,-18.4522762298584,3.940969944000244,-8.484342575073242
1766015520159791900,12.1307919921875,-14.101300239562988,1.8314119577407837,-8.855303764343262
1766015520169398500,12.1403984375,-9.577186584472656,-0.33886200189590454,-8.820442199707031
1766015520179005200,12.150005126953126,-5.550875186920166,-3.0465850830078125,-8.504180908203125
1766015520188611600,12.159611572265625,-1.9946750402450562,-5.839900970458984,-7.209252834320068
1766015520198218200,12.16921826171875,1.5364270210266113,-9.934988975524902,-5.226885795593262
1766015520207824600,12.17882470703125,4.764660835266113,-15.074527740478516,-2.1027679443359375
1766015520217431300,12.188431396484376,9.02263355255127,-20.802295684814453,2.081653118133545
1766015520227037700,12.19803759765625,15.595797538757324,-26.193870544433594,4.7078351974487305
1766015520236644000,12.20764404296875,23.459388732910156,-28.868818283081055,3.7697579860687256
1766015520246251000,12.2172509765625,33.33522033691406,-32.9324836730957,4.956841945648193
1766015520255857400,12.226857421875,42.52745056152344,-33.02367401123047,1.796841025352478
1766015520265464000,12.236464111328125,48.09657287597656,-29.708837509155273,-4.370520114898682
1766015520275070700,12.24607080078125,48.380069732666016,-26.513891220092773,-9.454916000366211
1766015520284677000,12.255677001953124,44.079017639160156,-24.323997497558594,-13.034881591796875
1766015520294283500,12.265283447265626,36.02037811279297,-22.031862258911133,-15.625877380371094
1766015520303890200,12.27489013671875,26.626651763916016,-19.659833908081055,-16.97467613220215
1766015520313496800,12.284496826171875,18.740802764892578,-16.57790756225586,-17.54266357421875
1766015520323103200,12.294103271484374,12.29386043548584,-13.50606918334961,-15.782991409301758
1766015520332710000,12.3037099609375,7.953046798706055,-10.960172653198242,-12.920475959777832
1766015520342316500,12.313316650390625,5.787124156951904,-8.593564987182617,-9.495865821838379
1766015520351923000,12.3229228515625,5.074419021606445,-6.161169052124023,-5.224759101867676
1766015520361529300,12.332529296875,4.089078903198242,-3.426887035369873,0.06368999928236008
1766015520371136000,12.342135986328126,1.3483819961547852,0.26475998759269714,5.005055904388428
1766015520380742700,12.35174267578125,-3.8787360191345215,4.382542133331299,8.750947952270508
1766015520390349000,12.36134912109375,-10.137578964233398,7.93921422958374,9.938154220581055
1766015520399955700,12.370955810546874,-15.125994682312012,9.720590591430664,9.979001998901367
1766015520409562400,12.380562255859376,-19.257854461669922,11.910840034484863,6.035837173461914
