time,seconds_elapsed,z,y,x
1766015508286090000,0.257090087890625,0.09790000319480896,-0.27403751015663147,0.2096875011920929
1766015508295696400,0.2666962890625,0.09171249717473984,-0.34498751163482666,0.1424500048160553
1766015508305303000,0.276302978515625,0.047849997878074646,-0.42061248421669006,0.06558749824762344
1766015508314909700,0.28590966796875,-0.032862499356269836,-0.4890874922275543,-0.02241249941289425
1766015508324516000,0.29551611328125,-0.13296249508857727,-0.5366625189781189,-0.1251250058412552
1766015508334122500,0.30512255859375,-0.22220000624656677,-0.5428500175476074,-0.23017500340938568
1766015508343729200,0.314729248046875,-0.27719998359680176,-0.4731374979019165,-0.32298749685287476
1766015508353335800,0.324335693359375,-0.29672500491142273,-0.3278000056743622,-0.3950375020503998
1766015508362942500,0.3339423828125,-0.2919124960899353,-0.1629374921321869,-0.44632500410079956
1766015508372548900,0.343548828125,-0.2820124924182892,-0.007699999958276749,-0.47808748483657837
1766015508382155300,0.3531552734375,-0.27348750829696655,0.11811249703168869,-0.4890874922275543
1766015508391762000,0.362761962890625,-0.2539624869823456,0.19139999151229858,-0.4890874922275543
1766015508401368300,0.372368408203125,-0.22948749363422394,0.20239999890327454,-0.4867500066757202
1766015508410975000,0.38197509765625,-0.21972499787807465,0.16568750143051147,-0.4890874922275543
1766015508420581600,0.39158154296875,-0.21738749742507935,0.10958749800920486,-0.4940375089645386
1766015508430188000,0.40118798828125,-0.21615000069141388,0.06187500059604645,-0.4940375089645386
1766015508439794400,0.41079443359375,-0.2124374955892563,0.027637500315904617,-0.4768500030040741
1766015508449401000,0.420401123046875,-0.2063875049352646,0.004537499975413084,-0.4402749836444855
1766015508459007500,0.430007568359375,-0.1989624947309494,-0.02241249941289425,-0.38403749465942383
1766015508468614100,0.4396142578125,-0.202674999833107,-0.07493750005960464,-0.3180375099182129
1766015508478220500,0.449220458984375,-0.2209624946117401,-0.13722500205039978,-0.25093749165534973
1766015508487827200,0.4588271484375,-0.24543750286102295,-0.18369999527931213,-0.17874999344348907
1766015508497433600,0.46843359375,-0.26372501254081726,-0.20679999887943268,-0.10188750177621841
1766015508507040300,0.478040283203125,-0.27101248502731323,-0.20803749561309814,-0.02969999983906746
1766015508516646700,0.487646728515625,-0.26496249437332153,-0.20803749561309814,0.03492499887943268
1766015508526253300,0.49725341796875,-0.24791249632835388,-0.21546250581741333,0.08868750184774399
1766015508535859700,0.506859619140625,-0.2246749997138977,-0.23622499406337738,0.12787500023841858
1766015508545466400,0.51646630859375,-0.20143750309944153,-0.2679874897003174,0.1461624950170517
1766015508555072800,0.52607275390625,-0.18067499995231628,-0.29727500677108765,0.14739999175071716
1766015508564679400,0.535679443359375,-0.1574375033378601,-0.30098751187324524,0.13763749599456787
1766015508574286000,0.5452861328125,-0.1293874979019165,-0.2569875121116638,0.12911249697208405
1766015508583892500,0.554892578125,-0.1036750003695488,-0.1812250018119812,0.12168750166893005
1766015508593499100,0.5644990234375,-0.08291249722242355,-0.10546249896287918,0.11687500029802322
1766015508603105500,0.57410546875,-0.07067500054836273,-0.03698749840259552,0.11563749611377716
1766015508612712200,0.583712158203125,-0.062150001525878906,0.017875000834465027,0.11811249703168869
1766015508622318600,0.593318603515625,-0.05967500060796738,0.027637500315904617,0.11687500029802322
1766015508631925200,0.60292529296875,-0.05115000158548355,-0.012649999931454659,0.11563749611377716
1766015508641532000,0.612531982421875,-0.037675000727176666,-0.05664999783039093,0.12044999748468399
1766015508651138300,0.62213818359375,-0.020624998956918716,-0.0859375,0.1326874941587448
1766015508660744700,0.63174462890625,-0.007149999961256981,-0.09569999575614929,0.1461624950170517
1766015508670351400,0.641351318359375,-0.0035749999806284904,-0.0859375,0.15344999730587006
1766015508679958000,0.6509580078125,-0.008387500420212746,-0.06517499685287476,0.15344999730587006
1766015508689564400,0.660564453125,-0.014574999921023846,-0.03946249932050705,0.14739999175071716
1766015508699171000,0.670171142578125,-0.015675000846385956,-0.005224999971687794,0.13763749599456787
1766015508708777700,0.67977783203125,-0.013337500393390656,0.03135000169277191,0.12292499840259552
1766015508718384000,0.689384033203125,-0.013337500393390656,0.06558749824762344,0.10092499852180481
1766015508727990800,0.69899072265625,-0.01209999993443489,0.07411249727010727,0.07768750190734863
1766015508737597200,0.70859716796875,-0.007149999961256981,0.05829999968409538,0.06187500059604645
1766015508747203800,0.718203857421875,-0.0035749999806284904,0.030112499371170998,0.05211250111460686
1766015508756810200,0.727810302734375,-0.0035749999806284904,-0.021175000816583633,0.05087500065565109
1766015508766416600,0.737416748046875,-0.0035749999806284904,-0.07864999771118164,0.055687498301267624
1766015508776023300,0.747023193359375,-0.007149999961256981,-0.13227500021457672,0.06792499870061874
1766015508785630000,0.7566298828125,-0.01691249944269657,-0.1629374921321869,0.08139999955892563
1766015508795236400,0.766236328125,-0.02914999984204769,-0.1714625060558319,0.09363749623298645
1766015508804843000,0.775843017578125,-0.04138749837875366,-0.14698749780654907,0.10339999943971634
1766015508814449400,0.785449462890625,-0.05115000158548355,-0.08717499673366547,0.1083500012755394
1766015508824056000,0.79505615234375,-0.05115000158548355,-0.008937500417232513,0.10216250270605087
1766015508833662500,0.804662353515625,-0.04138749837875366,0.0728750005364418,0.08511249721050262
1766015508843269000,0.81426904296875,-0.025575000792741776,0.14739999175071716,0.05692499876022339
1766015508852875500,0.82387548828125,-0.008387500420212746,0.20239999890327454,0.015399999916553497
1766015508862482000,0.83348193359375,0.0038499999791383743,0.2293500006198883,-0.03712499886751175
1766015508872088800,0.8430888671875,0.00989999994635582,0.22439999878406525,-0.09941250085830688
1766015508881695200,0.8526953125,0.016087500378489494,0.19139999151229858,-0.16664999723434448
1766015508891301600,0.862301513671875,0.018424998968839645,0.1303499937057495,-0.23622499406337738
1766015508900908000,0.871907958984375,0.025849999859929085,0.0826374962925911,-0.2924624979496002
1766015508910515000,0.881514892578125,0.03918749839067459,0.07535000145435333,-0.33274999260902405
1766015508920121300,0.891121337890625,0.05637500062584877,0.09006249904632568,-0.3559874892234802
1766015508929727700,0.900727783203125,0.06971249729394913,0.1120624989271164,-0.3632749915122986
1766015508939334400,0.91033447265625,0.07713750004768372,0.1303499937057495,-0.35846251249313354
1766015508948941000,0.919941162109375,0.07713750004768372,0.12306249886751175,-0.3474625051021576
1766015508958547500,0.92954736328125,0.07095000147819519,0.08882500231266022,-0.33274999260902405
1766015508968154000,0.939154052734375,0.06737499684095383,0.04729999974370003,-0.3144625127315521
1766015508977760800,0.9487607421875,0.06861250102519989,0.026537500321865082,-0.2924624979496002
1766015508987367200,0.9583671875,0.07466249912977219,0.026537500321865082,-0.26551249623298645
1766015508996973800,0.967973876953125,0.08071249723434448,0.03863750025629997,-0.23622499406337738
1766015509006580200,0.977580322265625,0.08689999580383301,0.07535000145435333,-0.20569999516010284
1766015509016186600,0.9871865234375,0.09913749992847443,0.14739999175071716,-0.16788749396800995
1766015509025793300,0.996793212890625,0.11742500215768814,0.22687499225139618,-0.12388750165700912
1766015509035400000,1.00639990234375,0.1344749927520752,0.28421249985694885,-0.0798875018954277
1766015509045006300,1.01600634765625,0.13695000112056732,0.2964499890804291,-0.04441250115633011
1766015509054613000,1.025613037109375,0.12594999372959137,0.2586374878883362,-0.02241249941289425
1766015509064219600,1.0352197265625,0.10889999568462372,0.18535000085830688,-0.015124999918043613
1766015509073826000,1.044825927734375,0.0929500013589859,0.09858749806880951,-0.01759999990463257
1766015509083432700,1.0544326171875,0.08195000141859055,0.028875000774860382,-0.026124998927116394
1766015509093039000,1.0640390625,0.07713750004768372,-0.0028874999843537807,-0.038362499326467514
1766015509102645800,1.073645751953125,0.08813749998807907,0.025299999862909317,-0.045649997889995575
1766015509112252200,1.083252197265625,0.11495000123977661,0.10711249709129333,-0.04688749834895134
1766015509121858800,1.09285888671875,0.15166249871253967,0.20611250400543213,-0.03712499886751175
1766015509131465500,1.102465576171875,0.18342499434947968,0.27445000410079956,-0.023649999871850014
1766015509141072000,1.11207177734375,0.19689999520778656,0.2793999910354614,-0.018837500363588333
1766015509150678300,1.12167822265625,0.1859000027179718,0.21463750302791595,-0.03217500075697899
1766015509160285000,1.131284912109375,0.1639000028371811,0.1120624989271164,-0.06159999966621399
1766015509169891600,1.1408916015625,0.1467124968767166,0.028875000774860382,-0.09446249902248383
1766015509179498000,1.150498046875,0.13942499458789825,-0.018699999898672104,-0.1251250058412552
1766015509189104600,1.160104736328125,0.1321374922990799,-0.03698749840259552,-0.15565000474452972
1766015509198711300,1.169711181640625,0.11495000123977661,-0.04441250115633011,-0.18369999527931213
1766015509208317700,1.179317626953125,0.10037499666213989,-0.03217500075697899,-0.2032250016927719
1766015509217924000,1.188924072265625,0.09913749992847443,0.014299999922513962,-0.20817500352859497
1766015509227530800,1.19853076171875,0.11495000123977661,0.09116250276565552,-0.19593749940395355
1766015509237137200,1.20813720703125,0.1381874978542328,0.18287499248981476,-0.17022499442100525
1766015509246743800,1.217743896484375,0.1601874977350235,0.2574000060558319,-0.13241249322891235
1766015509256350500,1.2273505859375,0.17723749577999115,0.29768750071525574,-0.08841250091791153
1766015509265956900,1.236956787109375,0.18466250598430634,0.3026374876499176,-0.04688749834895134
1766015509275563500,1.2465634765625,0.17599999904632568,0.2586374878883362,-0.01993750035762787
1766015509285170200,1.256170166015625,0.15289999544620514,0.14739999175071716,-0.013887500390410423
1766015509294776600,1.265776611328125,0.1223749965429306,0.010587500408291817,-0.021175000816583633
1766015509304383200,1.27538330078125,0.0966624990105629,-0.08841250091791153,-0.02969999983906746
1766015509313990000,1.284989990234375,0.08195000141859055,-0.12993749976158142,-0.038362499326467514
1766015509323596300,1.29459619140625,0.07713750004768372,-0.13846249878406525,-0.048124998807907104
1766015509333203000,1.304202880859375,0.08318749815225601,-0.13227500021457672,-0.057887498289346695
1766015509342809300,1.313809326171875,0.10037499666213989,-0.11151249706745148,-0.060362499207258224
1766015509352415700,1.323415771484375,0.12718750536441803,-0.07369999587535858,-0.0541750006377697
1766015509362022400,1.3330224609375,0.15523749589920044,-0.025987500324845314,-0.03464999794960022
1766015509371628800,1.34262890625,0.17242500185966492,0.010587500408291817,-0.005362499970942736
1766015509381235500,1.3522353515625,0.17242500185966492,0.028875000774860382,0.028875000774860382
1766015509390842000,1.361842041015625,0.14918750524520874,0.03506249934434891,0.05816249921917915
1766015509400448500,1.371448486328125,0.11371249705553055,0.03258749842643738,0.08387500047683716
1766015509410055200,1.38105517578125,0.07590000331401825,0.028875000774860382,0.1046374961733818
1766015509419661800,1.390661865234375,0.03918749839067459,0.011824999935925007,0.11687500029802322
1766015509429268200,1.400268310546875,0.0013749999925494194,-0.018699999898672104,0.11921250075101852
1766015509438875000,1.409875,-0.02667500078678131,-0.050462499260902405,0.11192499846220016
1766015509448481300,1.419481201171875,-0.040150001645088196,-0.07741250097751617,0.10092499852180481
1766015509458088000,1.429087890625,-0.045099999755620956,-0.09322500228881836,0.08992499858140945
1766015509467694300,1.4386943359375,-0.05238749831914902,-0.10546249896287918,0.0765874981880188
1766015509477300700,1.44830078125,-0.0658624991774559,-0.12251249700784683,0.05692499876022339
1766015509486907400,1.457907470703125,-0.07562500238418579,-0.12498749792575836,0.03616249933838844
1766015509496514000,1.46751416015625,-0.07438749819993973,-0.0919874981045723,0.015399999916553497
1766015509506120700,1.47712060546875,-0.06710000336170197,-0.045649997889995575,-0.004124999977648258
1766015509515727000,1.48672705078125,-0.06338749825954437,-0.010174999944865704,-0.021175000816583633
1766015509525333800,1.496333740234375,-0.06833750009536743,0.011824999935925007,-0.02969999983906746
1766015509534940200,1.505940185546875,-0.07562500238418579,0.025299999862909317,-0.02969999983906746
1766015509544546800,1.515546875,-0.08415000140666962,0.04358749836683273,-0.01759999990463257
1766015509554153500,1.525153564453125,-0.09267500042915344,0.05458749830722809,0.0031624999828636646
1766015509563759900,1.534759765625,-0.1036750003695488,0.03863750025629997,0.025162499397993088
1766015509573366500,1.544366455078125,-0.12196250259876251,0.002062499988824129,0.04358749836683273
1766015509582973200,1.55397314453125,-0.1391499936580658,-0.03217500075697899,0.05458749830722809
1766015509592579600,1.56357958984375,-0.14891250431537628,-0.06270000338554382,0.05692499876022339
1766015509602186000,1.57318603515625,-0.15372499823570251,-0.08717499673366547,0.04839999973773956
1766015509611792600,1.582792724609375,-0.15372499823570251,-0.10422500222921371,0.03135000169277191
1766015509621399300,1.5923994140625,-0.15015000104904175,-0.10793749988079071,0.0056374999694526196
1766015509631005700,1.602005615234375,-0.1354375034570694,-0.09075000137090683,-0.023649999871850014
1766015509640612400,1.6116123046875,-0.11467500030994415,-0.07369999587535858,-0.052937500178813934
1766015509650219000,1.621218994140625,-0.09515000134706497,-0.07617499679327011,-0.08112499862909317
1766015509659825400,1.630825439453125,-0.08291249722242355,-0.09075000137090683,-0.10422500222921371
1766015509669431800,1.640431884765625,-0.08538749814033508,-0.09322500228881836,-0.11893749982118607
1766015509679038700,1.650038818359375,-0.09267500042915344,-0.060224998742341995,-0.11769999563694
1766015509688645000,1.65964501953125,-0.10009999573230743,0.0008249999955296516,-0.10670000314712524
1766015509698251500,1.66925146484375,-0.10986249893903732,0.05582499876618385,-0.09212499856948853
1766015509707858200,1.678858154296875,-0.1256749927997589,0.07782500237226486,-0.0798875018954277
1766015509717464800,1.68846484375,-0.14396250247955322,0.0728750005364418,-0.06641250103712082
1766015509727071200,1.6980712890625,-0.15619999170303345,0.0668250024318695,-0.04936249926686287
1766015509736677600,1.707677734375,-0.15867500007152557,0.0668250024318695,-0.03341250121593475
1766015509746284500,1.717284423828125,-0.15372499823570251,0.06558749824762344,-0.018837500363588333
1766015509755891000,1.726890869140625,-0.1391499936580658,0.0668250024318695,-0.005362499970942736
1766015509775104300,1.746104248046875,-0.07686249911785126,0.1143999993801117,0.03382499888539314
1766015509784710700,1.755710693359375,-0.035337500274181366,0.171875,0.05692499876022339
1766015509794317000,1.765317138671875,-0.005912499967962503,0.2194499969482422,0.07535000145435333
1766015509803923700,1.774923828125,0.007424999959766865,0.23292499780654907,0.08635000139474869
1766015509813530400,1.7845302734375,0.007424999959766865,0.22316250205039978,0.08744999766349792
1766015509823136800,1.79413671875,0.006187499966472387,0.20845000445842743,0.0826374962925911
1766015509832743400,1.803743408203125,0.005087499972432852,0.19139999151229858,0.06916250288486481
1766015509842350000,1.81335009765625,0.0013749999925494194,0.171875,0.04963750019669533
1766015509851956500,1.82295654296875,-0.009624999947845936,0.1498750001192093,0.021587500348687172
1766015509861563100,1.832563232421875,-0.02433750033378601,0.13158750534057617,-0.011412499472498894
1766015509871169800,1.842169677734375,-0.03891250118613243,0.14011250436306,-0.048124998807907104
1766015509880776200,1.851776123046875,-0.04138749837875366,0.17668749392032623,-0.08470000326633453
1766015509890382600,1.861382568359375,-0.02914999984204769,0.21587499976158142,-0.12264999747276306
1766015509899989200,1.8709892578125,-0.010862499475479126,0.23663750290870667,-0.1568875014781952
1766015509909596000,1.880595947265625,0.007424999959766865,0.23045000433921814,-0.1849374920129776
1766015509919202600,1.89020263671875,0.020899999886751175,0.2134000062942505,-0.20446249842643738
1766015509928809000,1.89980908203125,0.02708750031888485,0.171875,-0.2204124927520752
1766015509938415600,1.90941552734375,0.020899999886751175,0.09982500225305557,-0.23498749732971191
1766015509948022000,1.91902197265625,0.006187499966472387,0.010587500408291817,-0.2447499930858612
1766015509957628700,1.928628662109375,-0.007149999961256981,-0.06270000338554382,-0.2447499930858612
1766015509967235300,1.9382353515625,-0.015675000846385956,-0.09569999575614929,-0.22893749177455902
1766015509976841700,1.947841796875,-0.014574999921023846,-0.09075000137090683,-0.19717499613761902
1766015509986448400,1.957448486328125,-0.009624999947845936,-0.07122500240802765,-0.15565000474452972
1766015509996055000,1.967054931640625,-0.004812499973922968,-0.055412501096725464,-0.10670000314712524
1766015510005661400,1.976661376953125,0.0038499999791383743,-0.045649997889995575,-0.05169999971985817
1766015510015268000,1.98626806640625,0.00989999994635582,-0.03698749840259552,0.0031624999828636646
1766015510024874800,1.995874755859375,0.007424999959766865,-0.038224998861551285,0.05087500065565109
1766015510034481200,2.005481201171875,-0.007149999961256981,-0.06875000149011612,0.08387500047683716
1766015510044087800,2.015087890625,-0.02667500078678131,-0.11893749982118607,0.09844999760389328
1766015510053694500,2.024694580078125,-0.04743750020861626,-0.1555124968290329,0.10092499852180481
1766015510063300900,2.03430078125,-0.07067500054836273,-0.1812250018119812,0.08992499858140945
1766015510072907500,2.043907470703125,-0.0976250022649765,-0.21051250398159027,0.06792499870061874
1766015510082514000,2.053513916015625,-0.11715000122785568,-0.24598750472068787,0.04358749836683273
1766015510092120600,2.06312060546875,-0.12815000116825104,-0.27403751015663147,0.023924998939037323
1766015510101727000,2.07272705078125,-0.13296249508857727,-0.296037495136261,0.012924999929964542
1766015510111333600,2.082333740234375,-0.13791249692440033,-0.30951249599456787,0.008112499490380287
1766015510120940300,2.091940185546875,-0.1428624987602234,-0.3143250048160553,0.008112499490380287
1766015510130547000,2.101546875,-0.1428624987602234,-0.31927499175071716,0.008112499490380287
1766015510140153300,2.1111533203125,-0.1354375034570694,-0.3205125033855438,0.004399999976158142
1766015510149759700,2.120759765625,-0.12815000116825104,-0.3302749991416931,-0.006599999964237213
1766015510159366700,2.13036669921875,-0.12196250259876251,-0.36684998869895935,-0.02736249938607216
1766015510168973000,2.13997314453125,-0.12196250259876251,-0.41827499866485596,-0.05664999783039093
1766015510178579500,2.149579345703125,-0.1293874979019165,-0.4670875072479248,-0.09212499856948853
1766015510188186000,2.15918603515625,-0.14643749594688416,-0.5025625228881836,-0.13722500205039978
1766015510197792800,2.168792724609375,-0.16238750517368317,-0.5171374678611755,-0.17998750507831573
1766015510207399200,2.178399169921875,-0.16967499256134033,-0.5110874772071838,-0.20941250026226044
1766015510217005800,2.188005859375,-0.16843749582767487,-0.4805625081062317,-0.2129874974489212
1766015510226612500,2.197612548828125,-0.16238750517368317,-0.43779999017715454,-0.19346250593662262
1766015510236219000,2.207218994140625,-0.15262499451637268,-0.3950375020503998,-0.15441249310970306
1766015510245825500,2.216825439453125,-0.14038750529289246,-0.3460874855518341,-0.10188750177621841
1766015510255432200,2.22643212890625,-0.12443749606609344,-0.296037495136261,-0.04688749834895134
1766015510265038600,2.23603857421875,-0.11110000312328339,-0.25203749537467957,0.0008249999955296516
1766015510274645200,2.245645263671875,-0.10119999945163727,-0.21175000071525574,0.0411125011742115
1766015510284252000,2.255251953125,-0.09143749624490738,-0.1872749924659729,0.0765874981880188
1766015510293858300,2.2648583984375,-0.09267500042915344,-0.18603749573230743,0.10092499852180481
1766015510303464700,2.274464599609375,-0.10243749618530273,-0.21051250398159027,0.1143999993801117
1766015510313071600,2.284071533203125,-0.11110000312328339,-0.24956250190734863,0.12787500023841858
1766015510322678000,2.293677978515625,-0.11838749796152115,-0.2923249900341034,0.1498750001192093
1766015510332284400,2.303284423828125,-0.12319999933242798,-0.30951249599456787,0.18287499248981476
1766015510341891300,2.312891357421875,-0.13186250627040863,-0.28751251101493835,0.22673749923706055
1766015510351497700,2.322497802734375,-0.1428624987602234,-0.23375000059604645,0.27073749899864197
1766015510361104100,2.332104248046875,-0.15262499451637268,-0.16775000095367432,0.30373749136924744
1766015510370711000,2.3417109375,-0.16596250236034393,-0.10546249896287918,0.31597501039505005
1766015510380317400,2.3513173828125,-0.1929125040769577,-0.06393750011920929,0.28792500495910645
1766015510389924000,2.360924072265625,-0.23319999873638153,-0.07246249914169312,0.21092499792575836
1766015510399530800,2.37053076171875,-0.2857249975204468,-0.1311749964952469,0.08511249721050262
1766015510409137200,2.38013720703125,-0.3345375061035156,-0.2264624983072281,-0.07617499679327011
1766015510418743800,2.389743896484375,-0.3675374984741211,-0.3278000056743622,-0.2545124888420105
1766015510428350200,2.39935009765625,-0.3772999942302704,-0.3913249969482422,-0.426800012588501
1766015510437956900,2.408956787109375,-0.3577750027179718,-0.3876124918460846,-0.5722749829292297
1766015510447563300,2.418563232421875,-0.32120001316070557,-0.32903748750686646,-0.6736124753952026
1766015510457170000,2.428169921875,-0.2747249901294708,-0.25946250557899475,-0.7236624956130981
1766015510466776600,2.437776611328125,-0.22343750298023224,-0.2129874974489212,-0.7273749709129333
1766015510476383000,2.447383056640625,-0.1671999990940094,-0.20198750495910645,-0.689424991607666
1766015510485989600,2.45698974609375,-0.10243749618530273,-0.2227499932050705,-0.6186124682426453
1766015510495596300,2.46659619140625,-0.03162499889731407,-0.26551249623298645,-0.5148000121116638
1766015510505203000,2.476202880859375,0.04413750022649765,-0.3205125033855438,-0.38651248812675476
1766015510514809300,2.485809326171875,0.11495000123977661,-0.37674999237060547,-0.23746250569820404
1766015510524415700,2.495415771484375,0.16747500002384186,-0.40851250290870667,-0.07864999771118164
1766015510534022700,2.505022705078125,0.19689999520778656,-0.40232500433921814,0.0789249986410141
1766015510543629000,2.514629150390625,0.20295000076293945,-0.3558500111103058,0.22439999878406525
1766015510553235500,2.5242353515625,0.18700000643730164,-0.2997500002384186,0.3404499888420105
1766015510562842000,2.533842041015625,0.1541374921798706,-0.2704625129699707,0.4222624897956848
1766015510572448800,2.54344873046875,0.10518749803304672,-0.2825624942779541,0.46502500772476196
1766015510582055200,2.55305517578125,0.04413750022649765,-0.31556248664855957,0.4637874960899353
1766015510591661800,2.562661865234375,-0.0193875003606081,-0.3718000054359436,0.4222624897956848
1766015510601268500,2.5722685546875,-0.07315000146627426,-0.43037500977516174,0.3502124845981598
1766015510610875000,2.581875,-0.10615000128746033,-0.46956250071525574,0.2609750032424927
1766015510620481500,2.5914814453125,-0.11219999939203262,-0.47932499647140503,0.164450004696846
1766015510630088200,2.601088134765625,-0.09391249716281891,-0.4646124839782715,0.07039999961853027
1766015510639694600,2.610694580078125,-0.05967500060796738,-0.426800012588501,-0.007837500423192978
1766015510649301000,2.620301025390625,-0.018149999901652336,-0.3485625088214874,-0.060362499207258224
1766015510658908000,2.629907958984375,0.02461249940097332,-0.23003749549388885,-0.08841250091791153
1766015510668514300,2.639514404296875,0.05389999970793724,-0.11893749982118607,-0.10064999759197235
1766015510678120700,2.64912060546875,0.06613750010728836,-0.04193750023841858,-0.10917499661445618
1766015510687727400,2.658727294921875,0.055137500166893005,-0.005224999971687794,-0.1214125007390976
1766015510697334000,2.668333984375,0.020899999886751175,-0.008937500417232513,-0.1434125006198883
1766015510706940700,2.677940673828125,-0.032862499356269836,-0.047987498342990875,-0.17641249299049377
1766015510716547000,2.687547119140625,-0.08910000324249268,-0.10298749804496765,-0.2167000025510788
1766015510726153700,2.69715380859375,-0.13062499463558197,-0.14327499270439148,-0.25575000047683716
1766015510735760100,2.706760009765625,-0.14643749594688416,-0.14451250433921814,-0.2862749993801117
1766015510745367000,2.716366943359375,-0.13420000672340393,-0.09446249902248383,-0.296037495136261
1766015510754973400,2.725973388671875,-0.09515000134706497,0.010587500408291817,-0.2777499854564667
1766015510764579800,2.735579833984375,-0.03657500073313713,0.14739999175071716,-0.22893749177455902
1766015510774186800,2.745186767578125,0.03437500074505806,0.2732124924659729,-0.1531749963760376
1766015510783793200,2.754793212890625,0.10271249711513519,0.36121249198913574,-0.055412501096725464
1766015510793399800,2.76439990234375,0.15523749589920044,0.3917374908924103,0.05211250111460686
1766015510803006200,2.774006103515625,0.1882375031709671,0.3684999942779541,0.16321249306201935
1766015510812612900,2.78361279296875,0.20047499239444733,0.31363749504089355,0.27197501063346863
1766015510822219500,2.793219482421875,0.19689999520778656,0.24639999866485596,0.37345001101493835
1766015510831826000,2.802825927734375,0.18095000088214874,0.17311249673366547,0.4637874960899353
1766015510841432600,2.8124326171875,0.15895000100135803,0.11935000121593475,0.5383124947547913
1766015510851039200,2.822039306640625,0.13337500393390656,0.09239999949932098,0.5945500135421753
1766015510860645600,2.831645751953125,0.11990000307559967,0.0765874981880188,0.6323624849319458
1766015510870252300,2.841252197265625,0.12347500026226044,0.05829999968409538,0.6518874764442444
1766015510879859000,2.85085888671875,0.13571250438690186,0.04358749836683273,0.6518874764442444
1766015510889465300,2.86046533203125,0.1504250019788742,0.0448249988257885,0.6250749826431274
1766015510899072000,2.870072021484375,0.17118750512599945,0.08511249721050262,0.5640249848365784
1766015510908678700,2.8796787109375,0.19689999520778656,0.15592500567436218,0.4675000011920929
1766015510918285000,2.88928515625,0.22866250574588776,0.2293500006198883,0.34402498602867126
1766015510927891500,2.898891357421875,0.26276248693466187,0.3049750030040741,0.20473749935626984
1766015510937498400,2.908498291015625,0.296999990940094,0.3636874854564667,0.06435000151395798
1766015510947104800,2.918104736328125,0.32394999265670776,0.3942124843597412,-0.06270000338554382
1766015510956711200,2.927711181640625,0.3409999907016754,0.3881624937057495,-0.16664999723434448
1766015510966317800,2.93731787109375,0.3630000054836273,0.36121249198913574,-0.23498749732971191
1766015510975924500,2.946924560546875,0.39476248621940613,0.3404499888420105,-0.260699987411499
1766015510985531000,2.95653076171875,0.432574987411499,0.3392125070095062,-0.24351249635219574
1766015510995137500,2.966137451171875,0.4655750095844269,0.36973750591278076,-0.19841249287128448
1766015511004744200,2.975744140625,0.48633748292922974,0.43326249718666077,-0.13722500205039978
1766015511014350600,2.9853505859375,0.5010499954223633,0.49321249127388,-0.07136250287294388
1766015511023957200,2.994957275390625,0.510812520980835,0.5285499691963196,-0.011412499472498894
1766015511033564000,3.00456396484375,0.510812520980835,0.5372124910354614,0.03739999979734421
1766015511043170300,3.01417041015625,0.4998124837875366,0.5224999785423279,0.0728750005364418
1766015511052777000,3.02377685546875,0.4815250039100647,0.4907374978065491,0.09611249715089798
1766015511062383600,3.033383544921875,0.4595249891281128,0.4529249966144562,0.1143999993801117
1766015511071990300,3.042990234375,0.4338124990463257,0.40521249175071716,0.1326874941587448
1766015511081596700,3.0525966796875,0.4105750024318695,0.34540000557899475,0.15716250240802765
1766015511091203300,3.062203369140625,0.38747498393058777,0.28792500495910645,0.18645000457763672
1766015511100809700,3.071809814453125,0.3630000054836273,0.24268749356269836,0.21697500348091125
1766015511110416400,3.08141650390625,0.3349500000476837,0.20239999890327454,0.23649999499320984
1766015511120023000,3.09102294921875,0.3104749917984009,0.1755875051021576,0.23649999499320984
1766015511129629400,3.10062939453125,0.30195000767707825,0.16335000097751617,0.22068749368190765
1766015511139236000,3.110236083984375,0.3129499852657318,0.15839999914169312,0.19263750314712524
1766015511148842800,3.1198427734375,0.34952500462532043,0.18892499804496765,0.164450004696846
1766015511158449400,3.129449462890625,0.4105750024318695,0.2829749882221222,0.1498750001192093
1766015511168055800,3.139055908203125,0.49252501130104065,0.4174500107765198,0.1522125005722046
1766015511177662500,3.148662353515625,0.5803874731063843,0.5297874808311462,0.16568750143051147
1766015511187269000,3.15826904296875,0.6549124717712402,0.5823125243186951,0.1839749962091446
1766015511196875500,3.16787548828125,0.6830999851226807,0.5457375049591064,0.18768750131130219
1766015511206482000,3.17748193359375,0.6391000151634216,0.42102500796318054,0.1461624950170517
1766015511216088600,3.187088623046875,0.5157625079154968,0.2073500007390976,0.03739999979734421
1766015511225695200,3.1966953125,0.33976250886917114,-0.055412501096725464,-0.1396999955177307
1766015511235301600,3.206301513671875,0.16266250610351562,-0.2899875044822693,-0.35475000739097595
1766015511244908300,3.215908203125,0.028187500312924385,-0.43037500977516174,-0.5685625076293945
1766015511254515000,3.225514892578125,-0.049912501126527786,-0.42061248421669006,-0.7396125197410583
1766015511264121300,3.235121337890625,-0.06943749636411667,-0.2679874897003174,-0.8384749889373779
1766015511273728000,3.24472802734375,-0.02667500078678131,-0.035887498408555984,-0.8568999767303467
1766015511283334700,3.254334716796875,0.07095000147819519,0.23787499964237213,-0.7957124710083008
1766015511292941000,3.263941162109375,0.2079000025987625,0.5347374677658081,-0.6711375117301941
1766015511302547700,3.273547607421875,0.3667125105857849,0.8058875203132629,-0.5086125135421753
1766015511312154400,3.283154296875,0.5340499877929688,0.9941250085830688,-0.3302749991416931
1766015511321760800,3.2927607421875,0.6866750121116638,1.0564124584197998,-0.1531749963760376
1766015511331367200,3.3023671875,0.8064374923706055,0.9843624830245972,0.011824999935925007
1766015511340974000,3.31197412109375,0.8846749663352966,0.8035500049591064,0.164450004696846
1766015511350580500,3.32158056640625,0.9224874973297119,0.5897374749183655,0.3086875081062317
1766015511360187000,3.331186767578125,0.9201499819755554,0.381974995136261,0.44302499294281006
1766015511369793800,3.340793701171875,0.8797249794006348,0.1999250054359436,0.5627874732017517
1766015511379400200,3.350400146484375,0.8064374923706055,0.03863750025629997,0.653124988079071
1766015511389006800,3.3600068359375,0.7136250138282776,-0.10917499661445618,0.6971250176429749
1766015511398613200,3.36961328125,0.6171000003814697,-0.2410375028848648,0.6910749673843384
1766015511408220000,3.379219970703125,0.5120499730110168,-0.36684998869895935,0.6311249732971191
1766015511417826600,3.38882666015625,0.38499999046325684,-0.4805625081062317,0.5017374753952026
1766015511427433200,3.39843310546875,0.23100000619888306,-0.5758500099182129,0.2964499890804291
1766015511437039600,3.40803955078125,0.07342500239610672,-0.6674249768257141,0.017875000834465027
1766015511446646300,3.417646240234375,-0.05238749831914902,-0.7321875095367432,-0.296037495136261
1766015511456252700,3.427252685546875,-0.12815000116825104,-0.7004249691963196,-0.5868499875068665
1766015511465859600,3.436859619140625,-0.15496249496936798,-0.5293750166893005,-0.8091874718666077
1766015511475465700,3.4464658203125,-0.14643749594688416,-0.2630375027656555,-0.9252374768257141
1766015511485072400,3.456072265625,-0.10243749618530273,0.05706249922513962,-0.9204249978065491
1766015511494679000,3.465678955078125,-0.015675000846385956,0.37097498774528503,-0.803137481212616
1766015511504285700,3.47528564453125,0.10766249895095825,0.6153125166893005,-0.6003249883651733
1766015511513892000,3.48489208984375,0.2529999911785126,0.7387874722480774,-0.3474625051021576
1766015511523498800,3.494498779296875,0.39476248621940613,0.7325999736785889,-0.07493750005960464
1766015511533105400,3.50410546875,0.510812520980835,0.6300249695777893,0.19139999151229858
1766015511542711800,3.5137119140625,0.5902875065803528,0.46997499465942383,0.4283125102519989
1766015511552318200,3.523318115234375,0.619575023651123,0.28421249985694885,0.6201249957084656
1766015511561924900,3.5329248046875,0.5963374972343445,0.11082500219345093,0.766837477684021
1766015511571531500,3.542531494140625,0.5303375124931335,-0.0016499999910593033,0.8681749701499939
1766015511581138000,3.552137939453125,0.4338124990463257,-0.030937500298023224,0.929224967956543
1766015511590744600,3.56174462890625,0.32394999265670776,0.0008249999955296516,0.9451749920845032
1766015511600351200,3.571351318359375,0.21147499978542328,0.04853750020265579,0.9182249903678894
1766015511609957600,3.58095751953125,0.10889999568462372,0.0668250024318695,0.8461750149726868
1766015511619564300,3.590564208984375,0.023375000804662704,0.03382499888539314,0.7374125123023987
1766015511629171000,3.6001708984375,-0.04262499883770943,-0.050462499260902405,0.6055499911308289
1766015511638777300,3.60977734375,-0.09019999951124191,-0.1629374921321869,0.46502500772476196
1766015511648384000,3.619384033203125,-0.1293874979019165,-0.2887499928474426,0.3282124996185303
1766015511657990700,3.62899072265625,-0.1611499935388565,-0.40603750944137573,0.2059749960899353
1766015511667597000,3.63859716796875,-0.18562500178813934,-0.4768500030040741,0.1143999993801117
1766015511677203500,3.648203369140625,-0.202674999833107,-0.490325003862381,0.05692499876022339
1766015511686810400,3.657810302734375,-0.21119999885559082,-0.46584999561309814,0.028875000774860382
1766015511696416800,3.667416748046875,-0.20996250212192535,-0.4328500032424927,0.028875000774860382
1766015511706023200,3.677023193359375,-0.20019999146461487,-0.38885000348091125,0.05458749830722809
1766015511715630000,3.686630126953125,-0.18438750505447388,-0.34251248836517334,0.09968750178813934
1766015511725236500,3.696236572265625,-0.1671999990940094,-0.3119874894618988,0.15716250240802765
1766015511734843100,3.705843017578125,-0.15138749778270721,-0.2985124886035919,0.22192500531673431
1766015511744449500,3.715449462890625,-0.14396250247955322,-0.2997500002384186,0.2854500114917755
1766015511754056200,3.72505615234375,-0.15262499451637268,-0.3278000056743622,0.33797499537467957
1766015511763662800,3.734662841796875,-0.16843749582767487,-0.37427499890327454,0.3782624900341034
1766015511773269200,3.744269287109375,-0.18314999341964722,-0.4218499958515167,0.4137375056743622
1766015511782876000,3.7538759765625,-0.19415000081062317,-0.4670875072479248,0.445499986410141
1766015511792482300,3.763482421875,-0.20996250212192535,-0.49761250615119934,0.4723125100135803
1766015511802089000,3.7730888671875,-0.2307250052690506,-0.5233250260353088,0.49431249499320984
1766015511811695600,3.782695556640625,-0.25148749351501465,-0.545324981212616,0.5040749907493591
1766015511821302000,3.792302001953125,-0.2747249901294708,-0.5673249959945679,0.49431249499320984
1766015511830908700,3.80190869140625,-0.297962486743927,-0.5928999781608582,0.4675000011920929
1766015511840515300,3.811515380859375,-0.31872498989105225,-0.6296125054359436,0.4185499846935272
1766015511850122000,3.8211220703125,-0.32725000381469727,-0.6564249992370605,0.35749998688697815
1766015511859728400,3.830728271484375,-0.30896249413490295,-0.6589000225067139,0.3012624979019165
1766015511878941700,3.849941650390625,-0.21367499232292175,-0.5856124758720398,0.2377374917268753
1766015511888548000,3.859548095703125,-0.1769624948501587,-0.5526124835014343,0.2059749960899353
1766015511898154800,3.86915478515625,-0.16472500562667847,-0.5355625152587891,0.14492499828338623
1766015511907761200,3.87876123046875,-0.16967499256134033,-0.5073750019073486,0.0411125011742115
1766015511917367800,3.888367919921875,-0.17820000648498535,-0.43779999017715454,-0.09569999575614929
1766015511926974500,3.897974365234375,-0.17943750321865082,-0.3339875042438507,-0.24969999492168427
1766015511936580900,3.907580810546875,-0.16843749582767487,-0.22027499973773956,-0.3975124955177307
1766015511946187500,3.9171875,-0.15015000104904175,-0.11769999563694,-0.5148000121116638
1766015511955794200,3.926794189453125,-0.1451999992132187,-0.0541750006377697,-0.5880874991416931
1766015511965400600,3.936400634765625,-0.1671999990940094,-0.050462499260902405,-0.6088500022888184
1766015511975007200,3.94600732421875,-0.21119999885559082,-0.10793749988079071,-0.5831375122070312
1766015511984614000,3.95561376953125,-0.2576749920845032,-0.19222499430179596,-0.5148000121116638
1766015511994220300,3.96522021484375,-0.29067498445510864,-0.2532750070095062,-0.41456249356269836
1766015512003827000,3.974826904296875,-0.30524998903274536,-0.2862749993801117,-0.2937000095844269
1766015512013433300,3.984433349609375,-0.3004375100135803,-0.2825624942779541,-0.15441249310970306
1766015512023040000,3.9940400390625,-0.27719998359680176,-0.2092749923467636,-0.0028874999843537807
1766015512032646700,4.003646728515625,-0.23691250383853912,-0.052937500178813934,0.14863750338554382
1766015512042253000,4.013253173828125,-0.17820000648498535,0.14863750338554382,0.28421249985694885
1766015512051859700,4.022859619140625,-0.10243749618530273,0.3111625015735626,0.3867875039577484
1766015512061466400,4.03246630859375,-0.023099999874830246,0.3722124993801117,0.44907498359680176
1766015512071072800,4.04207275390625,0.037950001657009125,0.3441624939441681,0.4675000011920929
1766015512080679400,4.051679443359375,0.0611874982714653,0.26468750834465027,0.4515500068664551
1766015512090286000,4.0612861328125,0.040424998849630356,0.16335000097751617,0.4039750099182129
1766015512099892500,4.070892578125,-0.013337500393390656,0.06929999589920044,0.3306874930858612
1766015512109499100,4.0804990234375,-0.08538749814033508,-0.008937500417232513,0.23292499780654907
1766015512119105800,4.090105712890625,-0.15262499451637268,-0.06146249920129776,0.11687500029802322
1766015512128712200,4.099712158203125,-0.19648750126361847,-0.06998749822378159,-0.004124999977648258
1766015512138318600,4.109318603515625,-0.20391249656677246,-0.011412499472498894,-0.12017499655485153
1766015512147925500,4.118925537109375,-0.1746249943971634,0.09006249904632568,-0.22398750483989716
1766015512157532000,4.128531982421875,-0.11962500214576721,0.18658749759197235,-0.30951249599456787
1766015512167138300,4.13813818359375,-0.04633750021457672,0.2451625019311905,-0.3718000054359436
1766015512176745000,4.147744873046875,0.03437500074505806,0.28421249985694885,-0.40603750944137573
1766015512186351600,4.1573515625,0.11137499660253525,0.3269749879837036,-0.40603750944137573
1766015512195958000,4.1669580078125,0.17489999532699585,0.35997501015663147,-0.37674999237060547
1766015512205564700,4.176564697265625,0.2176624983549118,0.3722124993801117,-0.3205125033855438
1766015512215171300,4.18617138671875,0.23718750476837158,0.36739999055862427,-0.24351249635219574
1766015512224777700,4.19577783203125,0.23966249823570251,0.34773749113082886,-0.15798750519752502
1766015512234384400,4.20538427734375,0.233474999666214,0.3123999834060669,-0.07246249914169312
1766015512243991000,4.214990966796875,0.2274249941110611,0.2671625018119812,-0.0028874999843537807
1766015512253597400,4.224597412109375,0.22866250574588776,0.21834999322891235,0.04839999973773956
1766015512263204000,4.2342041015625,0.23842500150203705,0.16087499260902405,0.0789249986410141
1766015512272810800,4.243810791015625,0.2591874897480011,0.09239999949932098,0.08744999766349792
1766015512282417200,4.253417236328125,0.28971248865127563,0.03382499888539314,0.08868750184774399
1766015512292023800,4.26302392578125,0.32752498984336853,0.011824999935925007,0.08868750184774399
1766015512301630500,4.27263037109375,0.37152498960494995,0.021587500348687172,0.08992499858140945
1766015512311236900,4.28223681640625,0.41923749446868896,0.030112499371170998,0.08744999766349792
1766015512320843500,4.291843505859375,0.46076250076293945,0.04235000163316727,0.08387500047683716
1766015512330450000,4.301449951171875,0.49004998803138733,0.08030000329017639,0.08511249721050262
1766015512340056600,4.311056640625,0.5010499954223633,0.1461624950170517,0.09735000133514404
1766015512349663000,4.3206630859375,0.49252501130104065,0.22316250205039978,0.12044999748468399
1766015512359269600,4.33026953125,0.47052499651908875,0.2866874933242798,0.1522125005722046
1766015512368876300,4.339876220703125,0.44728749990463257,0.3147374987602234,0.18892499804496765
1766015512378482700,4.349482666015625,0.4338124990463257,0.28792500495910645,0.22439999878406525
1766015512388089300,4.35908935546875,0.42899999022483826,0.21834999322891235,0.2536875009536743
1766015512397696000,4.368696044921875,0.427762508392334,0.13887499272823334,0.27445000410079956
1766015512407302400,4.378302490234375,0.4265249967575073,0.07906249910593033,0.28421249985694885
1766015512416908800,4.38790869140625,0.43133750557899475,0.04963750019669533,0.2866874933242798
1766015512426515700,4.397515625,0.44123750925064087,0.05706249922513962,0.2854500114917755
1766015512436122000,4.4071220703125,0.4582875072956085,0.09858749806880951,0.2854500114917755
1766015512445728800,4.416728759765625,0.48028749227523804,0.16458749771118164,0.2866874933242798
1766015512455335200,4.426335205078125,0.5022875070571899,0.24268749356269836,0.2866874933242798
1766015512464941800,4.43594189453125,0.5205749869346619,0.33316248655319214,0.28421249985694885
1766015512474548200,4.44554833984375,0.5413374900817871,0.4345000088214874,0.2854500114917755
1766015512484155000,4.45515478515625,0.5803874731063843,0.5395500063896179,0.30373749136924744
1766015512493761500,4.464761474609375,0.6440500020980835,0.6202625036239624,0.34773749113082886
1766015512503368200,4.4743681640625,0.6976749897003174,0.639787495136261,0.38926249742507935
1766015512512974600,4.483974609375,0.6916249990463257,0.5444999933242798,0.381974995136261
1766015512522581200,4.493581298828125,0.607337474822998,0.3147374987602234,0.28049999475479126
1766015512532187600,4.503187744140625,0.4717625081539154,0.021587500348687172,0.09844999760389328
1766015512541794300,4.512794189453125,0.32752498984336853,-0.17503750324249268,-0.09212499856948853
1766015512551400700,4.522400634765625,0.19071249663829803,-0.1652749925851822,-0.24351249635219574
1766015512561007400,4.53200732421875,0.0648999959230423,-0.028462499380111694,-0.35227498412132263
1766015512570614000,4.541614013671875,-0.030387500301003456,0.17434999346733093,-0.40603750944137573
1766015512580220400,4.551220458984375,-0.07809999585151672,0.44673749804496765,-0.39256250858306885
1766015512589827000,4.5608271484375,-0.06833750009536743,0.770550012588501,-0.3302749991416931
1766015512599433700,4.570433837890625,-0.0193875003606081,1.0771750211715698,-0.2484624981880188
1766015512609040100,4.5800400390625,0.042899999767541885,1.3007500171661377,-0.16788749396800995
1766015512618646800,4.589646728515625,0.09790000319480896,1.3972749710083008,-0.07617499679327011
1766015512628253400,4.59925341796875,0.10395000129938126,1.3459874391555786,0.07163749635219574
1766015512637859800,4.60885986328125,-0.013337500393390656,1.2152249813079834,0.29768750071525574
1766015512647466500,4.618466552734375,-0.22220000624656677,1.0636999607086182,0.5773624777793884
1766015512657073000,4.628072998046875,-0.16843749582767487,0.6605499982833862,0.9488874673843384
1766015512666679600,4.637679443359375,0.22618749737739563,0.31597501039505005,1.3275624513626099
1766015512676286000,4.647285888671875,0.33371248841285706,-0.09446249902248383,1.391087532043457
1766015512685892600,4.656892578125,-0.010862499475479126,-0.8885250091552734,0.9829875230789185
1766015512695499300,4.666499267578125,-0.4164874851703644,-1.354099988937378,0.683650016784668
1766015512705105700,4.676105712890625,-0.6803500056266785,-1.3173874616622925,0.7411249876022339
1766015512714712300,4.68571240234375,-0.8501625061035156,-1.1988625526428223,0.8681749701499939
1766015512724319000,4.695319091796875,-0.9527375102043152,-1.53725004196167,0.7398874759674072
1766015512733925400,4.70492529296875,-0.9662125110626221,-2.4010250568389893,0.3392125070095062
1766015512743532000,4.714531982421875,-0.8868749737739563,-3.2465124130249023,-0.038362499326467514
1766015512753138700,4.724138671875,-0.7451124787330627,-3.7364249229431152,-0.23622499406337738
1766015512762745000,4.7337451171875,-0.5618249773979187,-3.8145248889923096,-0.2679874897003174
1766015512772351500,4.7433515625,-0.32477501034736633,-3.6764750480651855,-0.2679874897003174
1766015512781958400,4.75295849609375,-0.09391249716281891,-2.645362377166748,-0.5368000268936157
1766015512791564800,4.762564697265625,-0.05115000158548355,-0.562375009059906,-0.7176125049591064
1766015512801171200,4.772171142578125,0.04895000159740448,1.5560874938964844,-0.645562469959259
1766015512810777900,4.78177783203125,0.233474999666214,3.4412124156951904,-0.6015625
1766015512820384500,4.791384521484375,0.45333749055862427,4.775237560272217,-0.6503750085830688
1766015512829991000,4.800990966796875,0.5730999708175659,5.360437393188477,-0.9021375179290771
1766015512839597300,4.810597412109375,0.5047624707221985,5.278625011444092,-1.3393875360488892
1766015512849204200,4.820204345703125,0.29218751192092896,4.837524890899658,-1.8427749872207642
1766015512858810600,4.829810546875,0.05389999970793724,4.574900150299072,-2.3876874446868896
1766015512868417000,4.8394169921875,-0.17943750321865082,3.933462381362915,-2.8506500720977783
1766015512878023700,4.849023681640625,-0.29067498445510864,1.9445250034332275,-3.0816500186920166
1766015512887630300,4.85863037109375,-0.023099999874830246,-0.25946250557899475,-3.0619874000549316
1766015512897236700,4.86823681640625,0.5181000232696533,-1.8818249702453613,-2.7957875728607178
1766015512906843400,4.877843505859375,0.9542499780654907,-2.789599895477295,-2.271637439727783
1766015512916450000,4.887449951171875,1.2340625524520874,-3.56784987449646,-1.5081000328063965
1766015512926056400,4.897056396484375,1.3708750009536743,-4.287387371063232,-0.5831375122070312
1766015512935662800,4.906662841796875,1.3415875434875488,-4.661250114440918,0.445499986410141
1766015512945269800,4.916269775390625,1.2475374937057495,-5.311212539672852,1.5291374921798706
1766015512954876200,4.925876220703125,1.2817749977111816,-5.937937259674072,2.5432000160217285
1766015512964482800,4.93548291015625,1.4735875129699707,-6.45342493057251,3.316499948501587
1766015512974089200,4.945089111328125,1.7740249633789062,-6.7174248695373535,3.7868874073028564
1766015512983696000,4.95469580078125,2.228600025177002,-6.73199987411499,3.976224899291992
1766015512993302300,4.96430224609375,2.8760874271392822,-6.6746625900268555,3.9395124912261963
1766015513002909000,4.973908935546875,3.543099880218506,-6.6209001541137695,3.807650089263916
1766015513012515600,4.983515625,4.023250102996826,-6.485187530517578,3.7026000022888184
1766015513022122000,4.9931220703125,4.310349941253662,-6.185850143432617,3.656125068664551
1766015513031728400,5.002728271484375,4.5216875076293945,-5.703362464904785,3.6231250762939453
1766015513041335300,5.012335205078125,4.726974964141846,-5.005687236785889,3.562074899673462
1766015513050941700,5.021941650390625,4.972549915313721,-4.063812255859375,3.460599899291992
1766015513060548000,5.031548095703125,5.214412689208984,-2.901937484741211,3.263974905014038
1766015513070154800,5.04115478515625,5.334175109863281,-1.4701499938964844,2.9706873893737793
1766015513079761400,5.050761474609375,5.276700019836426,0.21463750302791595,2.623775005340576
1766015513089367800,5.060367919921875,5.0250749588012695,1.811424970626831,2.276862382888794
1766015513098974500,5.069974365234375,4.492400169372559,3.02706241607666,2.036099910736084
1766015513108581000,5.0795810546875,3.6970999240875244,3.838175058364868,1.9872875213623047
1766015513118187500,5.0891875,2.7208499908447266,4.284087657928467,2.086287498474121
1766015513127794200,5.098794189453125,1.6482124328613281,4.333037376403809,2.223099946975708
1766015513137400800,5.10840087890625,0.6183375120162964,4.193749904632568,2.359912395477295
1766015513147007200,5.11800732421875,-0.2246749997138977,4.155799865722656,2.4637250900268555
1766015513156613600,5.127613525390625,-0.8709250092506409,4.3317999839782715,2.473487377166748
1766015513166220300,5.13722021484375,-1.3913625478744507,4.645712375640869,2.375725030899048
1766015513175827000,5.146826904296875,-1.8434624671936035,4.954812526702881,2.1350998878479004
1766015513185433600,5.15643359375,-2.2490875720977783,5.189387321472168,1.6952375173568726
1766015513195040300,5.166040283203125,-2.6069998741149902,5.3592000007629395,1.0685124397277832
1766015513204646700,5.175646728515625,-2.8660500049591064,5.5059123039245605,0.3562625050544739
1766015513214253000,5.185253173828125,-2.969862461090088,5.607249736785889,-0.3059374988079071
1766015513223859700,5.194859619140625,-2.9381000995635986,5.57919979095459,-0.8519499897956848
1766015513233466400,5.20446630859375,-2.8403375148773193,5.409387588500977,-1.2735249996185303
1766015513243072800,5.21407275390625,-2.737762451171875,5.089287281036377,-1.599674940109253
1766015513252679400,5.223679443359375,-2.6644749641418457,4.568850040435791,-1.8537750244140625
1766015513262286000,5.2332861328125,-2.6399998664855957,3.8064124584198,-2.049299955368042
1766015513271892500,5.242892578125,-2.687575101852417,2.846250057220459,-2.1958749294281006
1766015513281499000,5.252498779296875,-2.741337537765503,1.802899956703186,-2.339974880218506
1766015513291105800,5.262105712890625,-2.825624942779541,0.6275500059127808,-2.5355000495910645
1766015513300712200,5.271712158203125,-3.00038743019104,-0.6076124906539917,-2.7981250286102295
1766015513310318600,5.281318603515625,-3.2362000942230225,-1.6863000392913818,-3.1389875411987305
1766015513319925500,5.290925537109375,-3.407249927520752,-2.4682624340057373,-3.561800003051758
1766015513329532000,5.300531982421875,-3.4560625553131104,-3.0057499408721924,-4.051575183868408
1766015513339138300,5.31013818359375,-3.4463000297546387,-3.393087387084961,-4.530487537384033
1766015513348745000,5.319744873046875,-3.437774896621704,-3.84271240234375,-4.926350116729736
1766015513358351600,5.3293515625,-3.461012363433838,-4.524437427520752,-5.098637580871582
1766015513367958000,5.3389580078125,-3.5305874347686768,-5.357550144195557,-4.871349811553955
1766015513377564700,5.348564697265625,-3.699162483215332,-6.251850128173828,-4.225100040435791
1766015513387171300,5.35817138671875,-4.004687309265137,-7.335487365722656,-3.340562582015991
1766015513396777700,5.36777783203125,-4.488412380218506,-8.563362121582031,-2.2679250240325928
1766015513406384000,5.377384033203125,-5.112662315368652,-9.763050079345703,-0.9741874933242798
1766015513415991000,5.386990966796875,-5.792049884796143,-10.87611198425293,0.4039750099182129
1766015513425597400,5.396597412109375,-6.385775089263916,-11.527174949645996,1.636662483215332
1766015513435204000,5.4062041015625,-6.65568733215332,-11.375787734985352,2.521199941635132
1766015513444810500,5.415810546875,-6.501824855804443,-10.503487586975098,2.9414000511169434
1766015513454417200,5.425417236328125,-6.091249942779541,-9.268324851989746,2.964637517929077
1766015513464023600,5.4350234375,-5.605050086975098,-8.01363754272461,2.7655375003814697
1766015513473630200,5.444630126953125,-5.124899864196777,-7.01428747177124,2.5235373973846436
1766015513483236900,5.45423681640625,-4.705937385559082,-6.319087505340576,2.361150026321411
1766015513492843300,5.46384326171875,-4.354074954986572,-5.865887641906738,2.3256750106811523
1766015513502450000,5.473449951171875,-4.015687465667725,-5.51636266708374,2.417249917984009
1766015513512056600,5.483056640625,-3.6210625171661377,-5.124212265014648,2.5773000717163086
1766015513521663000,5.4926630859375,-3.173912525177002,-4.7125372886657715,2.7642998695373535
1766015513531269600,5.50226953125,-2.765812397003174,-4.492674827575684,3.0036873817443848
1766015513540876300,5.511876220703125,-2.432237386703491,-4.493912696838379,3.345787525177002
1766015513550482700,5.521482666015625,-2.1183249950408936,-4.5487751960754395,3.7806999683380127
1766015513560089300,5.53108935546875,-1.756700038909912,-4.5036749839782715,4.22056245803833
1766015513569695700,5.54069580078125,-1.3058375120162964,-4.282437324523926,4.57242488861084
1766015513579302400,5.550302490234375,-0.7781124711036682,-3.8365249633789062,4.803287506103516
1766015513588908800,5.55990869140625,-0.2149125039577484,-3.0314624309539795,4.930337429046631
1766015513598515500,5.569515380859375,0.34952500462532043,-1.7925875186920166,4.9487624168396
1766015513608122000,5.5791220703125,0.8529124855995178,-0.23375000059604645,4.841237545013428
1766015513617728500,5.588728515625,1.2792999744415283,1.4583250284194946,4.6762375831604
1766015513627335200,5.598335205078125,1.6824499368667603,3.108875036239624,4.541900157928467
1766015513636941600,5.607941650390625,2.0697875022888184,4.590849876403809,4.4624247550964355
1766015513646548200,5.61754833984375,2.463175058364868,5.6964874267578125,4.409900188446045
1766015513656155000,5.62715478515625,2.8406124114990234,6.5491251945495605,4.334137439727783
1766015513665761300,5.63676123046875,3.1032373905181885,7.532662391662598,4.113037586212158
1766015513675368000,5.646367919921875,3.1997625827789307,8.4855375289917,3.7453625202178955
1766015513684974300,5.655974365234375,3.0384750366210938,9.107449531555176,3.3812625408172607
1766015513694581000,5.6655810546875,2.548562526702881,9.306550025939941,3.1711623668670654
1766015513704187600,5.675187744140625,1.7825499773025513,9.2442626953125,3.139400005340576
1766015513713794000,5.6847939453125,0.8529124855995178,9.069637298583984,3.2174999713897705
1766015513723400700,5.694400634765625,-0.14891250431537628,8.748299598693848,3.317737579345703
1766015513733007400,5.70400732421875,-1.1312124729156494,8.274199485778809,3.359262466430664
1766015513742613800,5.71361376953125,-2.003512382507324,7.765999794006348,3.293262481689453
1766015513752220400,5.723220458984375,-2.694999933242798,7.415374755859375,3.101449966430664
1766015513761826800,5.732826904296875,-3.1334874629974365,7.3823747634887695,2.820537567138672
1766015513771433500,5.74243359375,-3.315537452697754,7.569375038146973,2.467437505722046
1766015513781040000,5.7520400390625,-3.3302500247955322,7.8674750328063965,2.01286244392395
1766015513790646500,5.761646484375,-3.2496750354766846,8.19733715057373,1.4301375150680542
1766015513800253200,5.771253173828125,-3.1726748943328857,8.571062088012695,0.7288874983787537
1766015513809859600,5.780859619140625,-3.1872498989105225,8.960874557495117,-0.03217500075697899
1766015513819466200,5.79046630859375,-3.3094875812530518,9.269974708557129,-0.7616124749183655
1766015513829073000,5.800072998046875,-3.5171124935150146,9.469075202941895,-1.4090999364852905
1766015513838679300,5.80967919921875,-3.728450059890747,9.527649879455566,-1.9465874433517456
1766015513848286000,5.819285888671875,-3.8654000759124756,9.316312789916992,-2.394974946975708
1766015513857892600,5.828892578125,-3.860450029373169,8.76411247253418,-2.776124954223633
1766015513867499000,5.8384990234375,-3.6966874599456787,7.90776252746582,-3.0999374389648438
1766015513877105700,5.848105712890625,-3.4170124530792236,6.819174766540527,-3.3710875511169434
1766015513886712000,5.857712158203125,-3.0724375247955322,5.586487293243408,-3.5898499488830566
1766015513896318700,5.867318603515625,-2.72552490234375,4.247512340545654,-3.729137420654297
1766015513905925400,5.87692529296875,-2.4737625122070312,2.7215375900268555,-3.7388999462127686
1766015513915531800,5.88653173828125,-2.412712574005127,1.119937539100647,-3.627662420272827
1766015513925138400,5.896138427734375,-2.5299999713897705,-0.23003749549388885,-3.4553749561309814
1766015513934745000,5.9057451171875,-2.710812568664551,-1.2380499839782715,-3.3272249698638916
1766015513944351500,5.9153515625,-2.8770499229431152,-2.118875026702881,-3.3552749156951904
1766015513953958100,5.924958251953125,-2.994337558746338,-2.9826500415802,-3.5629000663757324
1766015513963564800,5.934564697265625,-3.11148738861084,-3.9868125915527344,-3.8744750022888184
1766015513973171200,5.944171142578125,-3.2667250633239746,-5.372262477874756,-4.10052490234375
1766015513982777900,5.95377783203125,-3.441349983215332,-7.085100173950195,-4.039474964141846
1766015513992384300,5.96338427734375,-3.722399950027466,-8.923749923706055,-3.561800003051758
1766015514001991000,5.972990966796875,-4.1560750007629395,-10.817399978637695,-2.7016000747680664
1766015514011597600,5.98259765625,-4.637462615966797,-12.690287590026855,-1.5911500453948975
1766015514021204200,5.992204345703125,-5.124899864196777,-14.174736976623535,-0.38046249747276306
1766015514030810600,6.001810546875,-5.679574966430664,-14.880800247192383,0.7288874983787537
1766015514040417000,6.0114169921875,-6.2733001708984375,-14.564412117004395,1.5756125450134277
1766015514050023700,6.021023681640625,-6.725399971008301,-13.079962730407715,2.1350998878479004
1766015514059630300,6.03063037109375,-6.8316874504089355,-10.527825355529785,2.5004374980926514
1766015514069236700,6.04023681640625,-6.547062397003174,-7.685012340545654,2.704349994659424
1766015514078843400,6.049843505859375,-6.1120123863220215,-5.523787498474121,2.809537410736084
1766015514088449800,6.05944970703125,-5.739387512207031,-4.50724983215332,2.935349941253662
1766015514098056400,6.069056396484375,-5.410762310028076,-4.420487403869629,3.144212484359741
1766015514107663000,6.0786630859375,-5.073612689971924,-4.912875175476074,3.358025074005127
1766015514117269800,6.088269775390625,-4.766987323760986,-5.6434125900268555,3.5595998764038086
1766015514126876200,6.097876220703125,-4.496937274932861,-6.217612266540527,3.794174909591675
1766015514136482600,6.107482666015625,-4.1975998878479,-6.4046125411987305,4.040987491607666
1766015514146089500,6.11708935546875,-3.817687511444092,-6.116274833679199,4.268274784088135
1766015514155695900,6.12669580078125,-3.354724884033203,-5.4650750160217285,4.4319000244140625
1766015514165302300,6.13630224609375,-2.8573875427246094,-4.779775142669678,4.532137393951416
1766015514174909000,6.145908935546875,-2.358949899673462,-4.220149993896484,4.638424873352051
1766015514184515600,6.155515625,-1.822700023651123,-3.6227123737335205,4.7862372398376465
1766015514194122000,6.1651220703125,-1.1922625303268433,-2.855599880218506,4.973100185394287
1766015514203728400,6.174728271484375,-0.47753748297691345,-1.879349946975708,5.211387634277344
1766015514213335300,6.184335205078125,0.26647499203681946,-0.7884249687194824,5.509487628936768
1766015514222941700,6.193941650390625,1.0092500448226929,0.30387499928474426,5.879637241363525
1766015514232548000,6.203548095703125,1.8167874813079834,1.3410375118255615,6.3292622566223145
1766015514242155000,6.213155029296875,2.6915624141693115,2.2500500679016113,6.830174922943115
1766015514251761400,6.222761474609375,3.5809125900268555,2.9426374435424805,7.269899845123291
1766015514261367800,6.232367919921875,4.4544501304626465,3.752650022506714,7.453187465667725
1766015514270974700,6.241974609375,5.260887622833252,4.942574977874756,7.266324996948242
1766015514280581000,6.2515810546875,5.754374980926514,6.401312351226807,6.751937389373779
1766015514290187500,6.2611875,5.758087635040283,7.7184247970581055,6.112975120544434
1766015514299794400,6.27079443359375,5.1789374351501465,8.58701229095459,5.653587341308594
1766015514309400800,6.28040087890625,4.067249774932861,8.913162231445312,5.552249908447266
1766015514319007200,6.29000732421875,2.7282750606536865,8.665249824523926,5.8088250160217285
1766015514328614000,6.29961376953125,1.372112512588501,7.714712619781494,6.321837425231934
1766015514338220500,6.309220458984375,0.0038499999791383743,5.915112495422363,6.850937366485596
1766015514347827000,6.318826904296875,-1.3705999851226807,4.133937358856201,7.065987586975098
1766015514357433300,6.328433349609375,-2.593524932861328,2.9365875720977783,6.822750091552734
1766015514367040300,6.338040283203125,-3.62711238861084,2.4661998748779297,6.092212677001953
1766015514376646700,6.347646728515625,-4.361362457275391,2.714250087738037,4.96952486038208
1766015514386253000,6.357253173828125,-4.720512390136719,3.5290749073028564,3.6646499633789062
1766015514395859700,6.366859619140625,-4.941612243652344,4.840000152587891,2.407487392425537
1766015514405466400,6.37646630859375,-5.167662620544434,6.265737533569336,1.3238500356674194
1766015514424679700,6.3956796875,-5.404712677001953,8.094624519348145,0.04592499881982803
1766015514434286000,6.4052861328125,-5.507287502288818,8.33291244506836,-0.18975000083446503
1766015514443892500,6.414892578125,-5.630762577056885,8.032337188720703,-0.34375
1766015514453499100,6.4244990234375,-5.776100158691406,7.447137355804443,-0.5465624928474426
1766015514463105800,6.434105712890625,-5.892149925231934,6.999987602233887,-0.9021375179290771
1766015514472712200,6.443712158203125,-5.932437419891357,6.885174751281738,-1.4774374961853027
1766015514482318800,6.45331884765625,-5.9031500816345215,7.0280375480651855,-2.2093498706817627
1766015514491925500,6.462925537109375,-5.804150104522705,7.287087440490723,-2.956937551498413
1766015514501532000,6.472531982421875,-5.666100025177002,7.442325115203857,-3.5886125564575195
1766015514511138300,6.48213818359375,-5.548812389373779,7.237037658691406,-4.046762466430664
1766015514520745200,6.4917451171875,-5.481712341308594,6.565074920654297,-4.29838752746582
1766015514530351600,6.5013515625,-5.449949741363525,5.546199798583984,-4.380337238311768
1766015514539958000,6.5109580078125,-5.464524745941162,4.298799991607666,-4.383912563323975
1766015514549565000,6.52056494140625,-5.525712490081787,2.7227749824523926,-4.3826751708984375
1766015514559171300,6.53017138671875,-5.562287330627441,0.8266500234603882,-4.41691255569458
1766015514568777700,6.53977783203125,-5.465762615203857,-1.009524941444397,-4.557437419891357
1766015514578384400,6.54938427734375,-5.133424758911133,-2.4572625160217285,-4.865300178527832
1766015514587991000,6.558990966796875,-4.5812249183654785,-3.429800033569336,-5.313687324523926
1766015514597597400,6.568597412109375,-3.9472124576568604,-4.149337291717529,-5.721650123596191
1766015514607204000,6.5782041015625,-3.4390125274658203,-5.048449993133545,-5.941649913787842
1766015514616810800,6.587810791015625,-3.1396749019622803,-6.16151237487793,-6.011224746704102
1766015514626417200,6.597417236328125,-3.071199893951416,-7.147387504577637,-6.094274997711182
1766015514636023600,6.6070234375,-3.1934375762939453,-7.647062301635742,-6.283750057220459
1766015514645630200,6.616630126953125,-3.384012460708618,-7.280624866485596,-6.572087287902832
1766015514655236900,6.62623681640625,-3.4853498935699463,-6.027037620544434,-6.955574989318848
1766015514664843300,6.63584326171875,-3.507349967956543,-4.323962688446045,-7.416200160980225
1766015514674449700,6.64544970703125,-3.5782999992370605,-2.887362480163574,-7.733824729919434
1766015514684056600,6.655056640625,-3.722399950027466,-2.2116875648498535,-7.338099956512451
1766015514693663000,6.6646630859375,-3.818924903869629,-2.02839994430542,-5.732649803161621
1766015514703269600,6.67426953125,-3.6673998832702637,-2.1933999061584473,-3.0962250232696533
1766015514712876000,6.6838759765625,-3.2605373859405518,-2.693074941635132,-0.2937000095844269
1766015514722482700,6.693482666015625,-2.76705002784729,-3.2782750129699707,1.8320499658584595
1766015514732089000,6.703089111328125,-2.2294249534606934,-3.488374948501587,3.041637420654297
1766015514741695700,6.71269580078125,-1.6284124851226807,-3.0999374389648438,3.619412422180176
1766015514751302400,6.722302490234375,-0.9589250087738037,-2.221450090408325,4.067800045013428
1766015514760908800,6.73190869140625,-0.26743748784065247,-0.9374749660491943,4.8435750007629395
1766015514770515500,6.741515380859375,0.3825249969959259,0.504212498664856,5.924874782562256
1766015514780121900,6.751121826171875,0.8504375219345093,1.8664250373840332,6.899749755859375
1766015514789728500,6.760728515625,1.0642499923706055,3.1026875972747803,7.563187599182129
1766015514799335200,6.770335205078125,1.0605374574661255,4.120462417602539,7.933337688446045
1766015514808941600,6.779941650390625,0.8456249833106995,4.7862372398376465,8.076337814331055
1766015514818548200,6.78954833984375,0.46076250076293945,5.024525165557861,8.057912826538086
1766015514828155000,6.79915478515625,0.11990000307559967,4.937762260437012,7.971149921417236
1766015514837761300,6.80876123046875,-0.03162499889731407,4.814424991607666,7.807525157928467
1766015514847368000,6.818367919921875,-0.02186249941587448,4.976812362670898,7.466662406921387
1766015514856974300,6.827974365234375,0.050187498331069946,5.415437698364258,6.9156999588012695
1766015514866581000,6.8375810546875,0.07713750004768372,6.0299248695373535,6.2082624435424805
1766015514876187600,6.847187744140625,-0.004812499973922968,6.568787574768066,5.408012390136719
1766015514885794000,6.8567939453125,-0.20019999146461487,6.776412487030029,4.532137393951416
1766015514895400700,6.866400634765625,-0.4542999863624573,6.634649753570557,3.6646499633789062
1766015514905007400,6.87600732421875,-0.7451124787330627,6.156974792480469,2.8852999210357666
1766015514914613800,6.88561376953125,-1.103024959564209,5.327437400817871,2.2059125900268555
1766015514924220400,6.895220458984375,-1.5246000289916992,4.258512496948242,1.5841374397277832
1766015514933827000,6.9048271484375,-1.9423249959945679,3.1039249897003174,0.9512249827384949
1766015514943433500,6.91443359375,-2.2709500789642334,2.00323748588562,0.20363749563694
1766015514953040100,6.9240400390625,-2.4102375507354736,1.0527000427246094,-0.7066124677658081
1766015514962646500,6.933646484375,-2.318662405014038,0.3404499888420105,-1.7584874629974365
1766015514972253200,6.943253173828125,-2.073087453842163,-0.13846249878406525,-2.8775999546051025
1766015514981859800,6.95285986328125,-1.7994624376296997,-0.5135625004768372,-3.962475061416626
1766015514991466200,6.96246630859375,-1.5916999578475952,-1.0205249786376953,-4.947112560272217
1766015515001073000,6.972072998046875,-1.509887456893921,-1.77058744430542,-5.792600154876709
1766015515010679300,6.98167919921875,-1.5771249532699585,-2.645362377166748,-6.552424907684326
1766015515020286000,6.991285888671875,-1.6944124698638916,-3.3185625076293945,-7.300149917602539
1766015515029892600,7.000892578125,-1.6686999797821045,-3.506662368774414,-8.074687004089355
1766015515039499000,7.0104990234375,-1.390125036239624,-3.285562515258789,-8.902987480163574
1766015515049105400,7.02010546875,-0.9857375025749207,-3.028987407684326,-9.766762733459473
1766015515058712300,7.02971240234375,-0.6461125016212463,-3.451662540435791,-10.389912605285645
1766015515068318700,7.039318603515625,-0.1929125040769577,-4.602537631988525,-10.107625007629395
1766015515077925000,7.048925048828125,0.4632374942302704,-5.622650146484375,-8.45583724975586
1766015515087531800,7.05853173828125,1.152250051498413,-6.132225036621094,-5.777887344360352
1766015515097138400,7.068138427734375,1.6274499893188477,-6.4473748207092285,-3.147512435913086
1766015515106744800,7.077744873046875,1.5994000434875488,-6.342324733734131,-1.13052499294281
1766015515116351500,7.0873515625,1.1375374794006348,-5.428500175476074,0.3392125070095062
1766015515125958100,7.096958251953125,0.6610999703407288,-3.841475009918213,1.4803249835968018
1766015515135564500,7.106564453125,0.46076250076293945,-1.957587480545044,2.334199905395508
1766015515145171200,7.116171142578125,0.5035250186920166,-0.113987497985363,2.8351125717163086
1766015515154777600,7.125777587890625,0.7661499977111816,1.6268999576568604,3.1344499588012695
1766015515164384300,7.13538427734375,1.184012532234192,3.2309749126434326,3.526599884033203
1766015515173991000,7.144990966796875,1.56392502784729,4.576137542724609,4.089799880981445
1766015515183597300,7.154597412109375,1.82173752784729,5.454487323760986,4.784999847412109
1766015515193204000,7.164203857421875,1.9438375234603882,5.8333001136779785,5.606012344360352
1766015515202810600,7.173810546875,2.0160250663757324,5.852825164794922,6.522312641143799
1766015515212417000,7.1834169921875,2.1344125270843506,5.648775100708008,7.349374771118164
1766015515222023700,7.193023681640625,2.2676498889923096,5.367862701416016,7.872287273406982
1766015515231630300,7.20263037109375,2.270124912261963,5.079524993896484,7.96633768081665
1766015515241236700,7.21223681640625,2.1234123706817627,4.81923770904541,7.6840500831604
1766015515250843100,7.221843017578125,1.9524999856948853,4.650662422180176,7.164849758148193
1766015515260449800,7.23144970703125,1.8082624673843384,4.59689998626709,6.513649940490723
1766015515270056400,7.241056396484375,1.6372125148773193,4.517425060272217,5.807587623596191
1766015515279662800,7.250662841796875,1.3733500242233276,4.296325206756592,5.102624893188477
1766015515289269500,7.26026953125,1.0129624605178833,3.9261748790740967,4.396424770355225
1766015515298876200,7.269876220703125,0.6158624887466431,3.4179749488830566,3.6768875122070312
1766015515308482600,7.279482666015625,0.23100000619888306,2.7105374336242676,2.9303998947143555
1766015515318089000,7.2890888671875,-0.15015000104904175,1.8761874437332153,2.0935750007629395
1766015515327695600,7.298695556640625,-0.5092999935150146,1.029462456703186,1.1504625082015991
1766015515337302000,7.308302001953125,-0.8171625137329102,0.25244998931884766,0.16940000653266907
1766015515346908700,7.31790869140625,-1.0579249858856201,-0.3937999904155731,-0.8043749928474426
1766015515356515300,7.327515380859375,-1.2057374715805054,-0.9117624759674072,-1.7621999979019165
1766015515366122000,7.3371220703125,-1.281499981880188,-1.3003374338150024,-2.6845500469207764
1766015515375728400,7.346728271484375,-1.3290749788284302,-1.5702500343322754,-3.531137466430664
1766015515385335000,7.3563349609375,-1.3950749635696411,-1.9025875329971313,-4.27762508392334
1766015515394941700,7.365941650390625,-1.5208874940872192,-2.3790249824523926,-4.942299842834473
1766015515404548000,7.375548095703125,-1.6919374465942383,-2.8824124336242676,-5.570262432098389
1766015515414154800,7.38515478515625,-1.8287500143051147,-3.296562433242798,-6.1712751388549805
1766015515423761400,7.394761474609375,-1.8482749462127686,-3.60194993019104,-6.73571252822876
1766015515433367800,7.404367919921875,-1.7029374837875366,-3.7804250717163086,-7.3086748123168945
1766015515442974500,7.413974365234375,-1.4403125047683716,-3.968524932861328,-7.986824989318848
1766015515452580900,7.423580810546875,-1.211787462234497,-4.512199878692627,-8.722174644470215
1766015515462187300,7.433187255859375,-1.015162467956543,-5.421074867248535,-9.126562118530273
1766015515471794200,7.442794189453125,-0.7096375226974487,-6.3508501052856445,-8.785699844360352
1766015515481400600,7.452400634765625,-0.28091248869895935,-7.1168622970581055,-7.546962261199951
1766015515491007200,7.46200732421875,0.20542499423027039,-7.7448248863220215,-5.565312385559082
1766015515500613600,7.471613525390625,0.6806250214576721,-8.069737434387207,-3.1891748905181885
1766015515510220300,7.48122021484375,0.9457250237464905,-7.647062301635742,-0.8091874718666077
1766015515519827000,7.490826904296875,0.9286749958992004,-6.426612377166748,1.1712249517440796
1766015515529433300,7.500433349609375,0.7771499752998352,-4.6954874992370605,2.460012435913086
1766015515539040000,7.5100400390625,0.5475249886512756,-2.7443625926971436,3.076974868774414
1766015515548646400,7.519646484375,0.23594999313354492,-0.8677625060081482,3.239500045776367
1766015515558253000,7.529253173828125,-0.040150001645088196,0.7925499677658081,3.20416259765625
1766015515567859500,7.538859375,-0.19167499244213104,2.2206249237060547,3.195499897003174
1766015515577466000,7.548466064453125,-0.2564375102519989,3.2944998741149902,3.334787368774414
1766015515587072800,7.55807275390625,-0.2722499966621399,3.8711750507354736,3.631649971008301
1766015515596679200,7.56767919921875,-0.23691250383853912,3.9786999225616455,4.055562496185303
1766015515606285800,7.577285888671875,-0.14038750529289246,3.766124963760376,4.5687127113342285
1766015515615892200,7.586892333984375,-0.02186249941587448,3.2799248695373535,5.075812339782715
1766015515625499000,7.596498779296875,-0.07809999585151672,2.522437572479248,5.436200141906738
1766015515635105500,7.60610546875,-0.5190625190734863,1.4473249912261963,5.581537246704102
1766015515644712000,7.6157119140625,-1.4048374891281128,0.08758749812841415,5.650012493133545
1766015515654318600,7.625318603515625,-2.3321375846862793,-1.4066250324249268,5.775825023651123
1766015515663925000,7.634925048828125,-3.0871500968933105,-3.1389875411987305,5.879637241363525
1766015515673531600,7.64453173828125,-3.765162467956543,-4.812775135040283,5.934637546539307
1766015515683138300,7.65413818359375,-4.313650131225586,-6.173749923706055,5.940687656402588
1766015515692744700,7.66374462890625,-4.61175012588501,-7.082624912261963,5.857637405395508
1766015515702351400,7.673351318359375,-4.59841251373291,-7.56401252746582,5.632824897766113
1766015515711958000,7.6829580078125,-4.31612491607666,-7.736299991607666,5.278625011444092
1766015515721564400,7.692564453125,-3.8592123985290527,-7.709350109100342,4.841237545013428
1766015515731170800,7.7021708984375,-3.357062578201294,-7.652012348175049,4.38432502746582
1766015515740777500,7.711777587890625,-2.809812545776367,-7.711824893951416,4.083749771118164
1766015515750384000,7.721384033203125,-2.1366124153137207,-7.94035005569458,4.0079874992370605
1766015515759990500,7.730990478515625,-1.2460249662399292,-8.242025375366211,4.060512542724609
1766015515769597200,7.74059716796875,-0.10009999573230743,-8.582887649536133,4.214512348175049
1766015515779203800,7.750203857421875,1.4931124448776245,-8.827224731445312,4.470950126647949
1766015515788810200,7.759810302734375,3.5125749111175537,-8.629362106323242,4.606662273406982
1766015515798417000,7.7694169921875,5.626087665557861,-8.1003999710083,4.492949962615967
1766015515808023300,7.779023193359375,7.9620747566223145,-6.460849761962891,4.127749919891357
1766015515817630000,7.7886298828125,10.016875267028809,-3.4003748893737793,3.502262592315674
1766015515827236600,7.798236572265625,11.430512428283691,0.20116250216960907,2.705587387084961
1766015515836843000,7.807843017578125,12.103574752807617,3.4887874126434326,2.0227625370025635
1766015515846449700,7.81744970703125,12.052287101745605,5.9053497314453125,1.6879500150680542
1766015515865662700,7.836662841796875,8.621800422668457,7.717187404632568,2.3623874187469482
1766015515875269400,7.846269287109375,6.1014251708984375,7.576662540435791,3.3543124198913574
1766015515884876000,7.8558759765625,4.223587512969971,6.7116498947143555,3.6268374919891357
1766015515894482400,7.865482421875,3.0458998680114746,4.91328763961792,2.6848249435424805
1766015515904089000,7.875089111328125,2.569462537765503,2.4869625568389893,1.0612249374389648
1766015515913695500,7.884695556640625,2.489987373352051,-0.44385001063346863,-0.454987496137619
1766015515923302100,7.89430224609375,2.382462501525879,-3.0034124851226807,-1.1464749574661255
1766015515932908500,7.903908447265625,1.984262466430664,-4.218912601470947,-1.0059499740600586
1766015515942515200,7.91351513671875,1.197350025177002,-3.846287488937378,-0.3852750062942505
1766015515952121600,7.92312158203125,0.20666250586509705,-2.2789249420166016,0.33550000190734863
1766015515961728300,7.932728271484375,-0.691349983215332,-0.23127499222755432,0.8718875050544739
1766015515971334700,7.942334716796875,-1.3840750455856323,1.5133249759674072,1.0880374908447266
1766015515980941300,7.95194140625,-1.9460375308990479,2.5749623775482178,1.0539374351501465
1766015515990635500,7.961635498046875,-2.427424907684326,2.9903500080108643,0.9537000060081482
1766015516000154400,7.971154296875,-2.8403375148773193,2.821774959564209,0.8791750073432922
1766015516009761000,7.980760986328125,-3.2899625301361084,2.0813374519348145,0.8621249794960022
1766015516019367700,7.99036767578125,-3.7333998680114746,1.0698875188827515,0.9451749920845032
1766015516028974000,7.99997412109375,-4.066975116729736,0.11935000121593475,1.0282249450683594
1766015516038580700,8.009580810546876,-4.346650123596191,-0.5746124982833862,1.0135124921798706
1766015516048187100,8.019187255859375,-4.632649898529053,-0.9532874822616577,0.9134125113487244
1766015516057793800,8.028793701171875,-4.898849964141846,-1.018049955368042,0.7680749893188477
1766015516067400400,8.038400390625,-5.113900184631348,-0.8556625247001648,0.57378751039505
1766015516077006800,8.0480068359375,-5.293475151062012,-0.6906625032424927,0.27816250920295715
1766015516086613500,8.057613525390625,-5.481712341308594,-0.7908999919891357,-0.10188750177621841
1766015516096220000,8.067219970703125,-5.682049751281738,-1.1023374795913696,-0.47808748483657837
1766015516105826600,8.07682666015625,-5.850625038146973,-1.479912519454956,-0.7823749780654907
1766015516115433200,8.08643310546875,-5.949625015258789,-1.8427749872207642,-0.9924749732017517
1766015516125039600,8.09603955078125,-5.967912673950195,-2.154212474822998,-1.121999979019165
1766015516134646300,8.105646240234375,-5.887337684631348,-2.3094499111175537,-1.2000999450683594
1766015516144253000,8.1152529296875,-5.689337253570557,-2.2287375926971436,-1.2295249700546265
1766015516153859300,8.124859375,-5.391237258911133,-2.0088748931884766,-1.2197624444961548
1766015516163465700,8.1344658203125,-4.881800174713135,-1.8183000087738037,-1.104812502861023
1766015516173072400,8.144072265625,-3.981450080871582,-1.7608250379562378,-0.7994250059127808
1766015516182679000,8.153678955078124,-2.5777125358581543,-1.8317749500274658,-0.3497999906539917
1766015516192285400,8.163285400390626,-0.6143500208854675,-1.9270625114440918,0.10216250270605087
1766015516201892000,8.17289208984375,1.8167874813079834,-1.7364875078201294,0.44907498359680176
1766015516211498800,8.182498779296875,4.470399856567383,-1.0034749507904053,0.565262496471405
1766015516221105200,8.192105224609374,7.169112682342529,0.29768750071525574,0.3722124993801117
1766015516230711800,8.2017119140625,9.709012031555176,2.0092875957489014,-0.18369999527931213
1766015516240318200,8.211318115234375,11.942424774169922,4.009224891662598,-1.0462374687194824
1766015516249924900,8.2209248046875,13.72854995727539,6.304787635803223,-2.1433498859405518
1766015516259531500,8.230531494140624,14.837762832641602,8.677350044250488,-3.489612579345703
1766015516269138000,8.240137939453126,14.951475143432617,10.23632526397705,-4.914112567901611
1766015516278744600,8.24974462890625,13.765125274658203,9.811175346374512,-5.675312519073486
1766015516288351000,8.25935107421875,11.137225151062012,7.003699779510498,-4.827487468719482
1766015516297957600,8.26895751953125,7.0164875984191895,2.6519625186920166,-2.198349952697754
1766015516317170700,8.288170654296875,-1.2178374528884888,-6.6134748458862305,3.4643125534057617
1766015516326777300,8.29777734375,-3.270437479019165,-8.920037269592285,4.274324893951416
1766015516336383700,8.3073837890625,-3.7846875190734863,-8.790650367736816,4.078800201416016
1766015516345990400,8.316990478515624,-3.1579625606536865,-6.033225059509277,3.521787405014038
1766015516355596800,8.3265966796875,-2.1195623874664307,-1.7474875450134277,2.785062551498413
1766015516365203500,8.336203369140625,-1.206974983215332,2.2988624572753906,2.0825750827789307
1766015516374810000,8.34581005859375,-0.6571124792098999,5.102624893188477,1.6794250011444092
1766015516384416500,8.35541650390625,-0.5263500213623047,6.601787567138672,1.6501375436782837
1766015516394023200,8.365023193359375,-0.8036875128746033,6.935225009918213,1.9408124685287476
1766015516403629800,8.3746298828125,-1.4195499420166016,6.315787315368652,2.4087250232696533
1766015516413236200,8.384236328125,-2.2490875720977783,5.08433723449707,2.909637451171875
1766015516422843000,8.3938427734375,-3.113962411880493,3.6671249866485596,3.3214499950408936
1766015516432425200,8.40342529296875,-3.846975088119507,2.4186248779296875,3.5657875537872314
1766015516442056000,8.413055908203125,-4.379650115966797,1.5206124782562256,3.6255998611450195
1766015516451662300,8.422662353515625,-4.7144622802734375,0.9904124736785889,3.5303125381469727
1766015516461269000,8.43226904296875,-4.876987457275391,0.740024983882904,3.3127875328063965
1766015516470875600,8.441875732421876,-4.909850120544434,0.6715499758720398,3.0134499073028564
1766015516480482000,8.45148193359375,-4.837800025939941,0.7497875094413757,2.660487413406372
1766015516490088700,8.461088623046875,-4.748700141906738,0.8841249942779541,2.27810001373291
1766015516499695400,8.4706953125,-4.697275161743164,0.9684125185012817,1.8980499505996704
1766015516509301800,8.4803017578125,-4.697275161743164,0.9403625130653381,1.5438499450683594
1766015516518908400,8.489908447265625,-4.665512561798096,0.8120750188827515,1.216325044631958
1766015516528515000,8.49951513671875,-4.4933624267578125,0.6140750050544739,0.9499874711036682
1766015516538121500,8.50912158203125,-4.066975116729736,0.41868749260902405,0.775362491607666
1766015516547728000,8.518727783203126,-3.322962522506714,0.2964499890804291,0.6298875212669373
1766015516557334500,8.52833447265625,-2.3161873817443848,-0.035887498408555984,0.38554999232292175
1766015516566941200,8.537941162109375,-1.2557874917984009,-0.5880874991416931,-0.06764999777078629
1766015516576547600,8.547547607421874,-0.2881999909877777,-0.8824750185012817,-0.7493749856948853
1766015516586154200,8.557154296875,0.6806250214576721,-0.44632500410079956,-1.6681499481201172
1766015516595761000,8.566760986328125,1.643399953842163,0.6337375044822693,-2.870312452316284
1766015516605367300,8.5763671875,2.504699945449829,1.9702374935150146,-4.317912578582764
1766015516614974200,8.58597412109375,3.1997625827789307,3.1992125511169434,-5.907412528991699
1766015516624580600,8.59558056640625,3.7006750106811523,4.083749771118164,-7.4113874435424805
1766015516634187000,8.60518701171875,3.980487585067749,4.686137676239014,-8.598837852478027
1766015516643793700,8.614793701171875,3.926724910736084,5.176050186157227,-9.47237491607666
1766015516653400300,8.624400390625,3.5162875652313232,5.573012351989746,-10.21033763885498
1766015516663006700,8.6340068359375,2.915137529373169,5.742825031280518,-10.934687614440918
1766015516672613000,8.643613037109375,2.305462598800659,5.360437393188477,-11.59207534790039
1766015516682220000,8.653219970703125,1.81802499294281,4.139987468719482,-11.918225288391113
1766015516691826400,8.662826416015625,1.700737476348877,2.6201999187469482,-11.306212425231934
1766015516701432800,8.672432861328126,2.0037875175476074,1.1382249593734741,-9.434425354003906
1766015516711039500,8.68203955078125,2.4411749839782715,-0.32903748750686646,-6.634375095367432
1766015516720646100,8.691646240234375,2.766087532043457,-1.7059625387191772,-3.5873749256134033
1766015516730252500,8.70125244140625,3.0067124366760254,-2.694312572479248,-0.7799000144004822
1766015516739859200,8.710859130859374,3.3329999446868896,-3.027750015258789,1.5266624689102173
1766015516749465600,8.720465576171875,3.7837250232696533,-2.734600067138672,3.029399871826172
1766015516759072300,8.730072265625,4.389687538146973,-1.874537467956543,3.6121249198913574
1766015516768679000,8.739678955078125,5.142362594604492,-0.6576625108718872,3.4765498638153076
1766015516778285600,8.74928564453125,5.9523749351501465,0.5517874956130981,3.0196375846862793
1766015516787892000,8.75889208984375,6.740250110626221,1.5268000364303589,2.6384875774383545
1766015516797498400,8.768498291015625,7.3866376876831055,2.1082875728607178,2.5187249183654785
1766015516807105000,8.77810498046875,7.760499954223633,2.1975250244140625,2.694587469100952
1766015516816711700,8.787711669921874,7.766550064086914,1.9384750127792358,3.131974935531616
1766015516826318000,8.797318115234376,7.358449935913086,1.5303750038146973,3.728174924850464
1766015516835924700,8.8069248046875,6.560675144195557,1.1431750059127808,4.385425090789795
1766015516845531400,8.816531494140625,5.596799850463867,0.8438374996185303,5.001287460327148
1766015516855137800,8.8261376953125,4.720787525177002,0.7008374929428101,5.444725036621094
1766015516864744400,8.835744384765626,4.013487339019775,0.8340749740600586,5.569300174713135
1766015516874351000,8.84535107421875,3.3182873725891113,1.0527000427246094,5.249199867248535
1766015516883957500,8.85495751953125,2.5278000831604004,1.2506999969482422,4.659187316894531
1766015516893564200,8.864564208984374,1.6237374544143677,1.4632749557495117,4.069037437438965
1766015516903170600,8.874170654296876,0.62933748960495,1.6966124773025513,3.5998873710632324
1766015516912777200,8.883777099609375,-0.317487508058548,1.8737125396728516,3.232212543487549
1766015516922384000,8.8933837890625,-1.098212480545044,1.911525011062622,2.8888750076293945
1766015516931990300,8.902990234375,-1.7004624605178833,1.8589999675750732,2.513774871826172
1766015516941597000,8.912596923828126,-2.2258501052856445,1.7869499921798706,2.100862503051758
1766015516951203300,8.922203369140625,-2.7620999813079834,1.6891875267028809,1.702662467956543
1766015516960810000,8.93181005859375,-3.2960124015808105,1.5463249683380127,1.3433749675750732
1766015516970416400,8.94141650390625,-3.7553999423980713,1.3752750158309937,1.0014125108718872
1766015516980023000,8.95102294921875,-4.066975116729736,1.0869375467300415,0.6593124866485596
1766015516989629400,8.96062939453125,-4.239124774932861,0.6495500206947327,0.3110249936580658
1766015516999236000,8.970236083984375,-4.303887367248535,0.11687500029802322,-0.03959999978542328
1766015517008842800,8.9798427734375,-4.275837421417236,-0.34498751163482666,-0.4232249855995178
1766015517018449200,8.98944921875,-4.195262432098389,-0.5880874991416931,-0.9179499745368958
1766015517028055800,8.999055908203125,-4.070549964904785,-0.6503750085830688,-1.5959625244140625
1766015517037662500,9.008662353515625,-3.944737434387207,-0.6967124938964844,-2.4634499549865723
1766015517047268900,9.018268798828124,-3.8213999271392822,-0.8274750113487244,-3.434612512588501
1766015517056875500,9.02787548828125,-3.610062599182129,-1.0572375059127808,-4.39243745803833
1766015517066482000,9.03748193359375,-3.2899625301361084,-1.4957250356674194,-5.268449783325195
1766015517076088600,9.047088623046875,-2.945387601852417,-2.357024908065796,-6.06374979019165
1766015517085695200,9.0566953125,-2.4041874408721924,-3.6117124557495117,-6.589137554168701
1766015517095301600,9.066301513671876,-1.3253624439239502,-4.777299880981445,-6.5133748054504395
1766015517104908300,9.075908203125,0.3372874855995178,-5.614124774932861,-5.550737380981445
1766015517114515000,9.085514892578125,2.3909873962402344,-6.266562461853027,-3.719374895095825
1766015517124121300,9.095121337890625,4.459400177001953,-6.691712379455566,-1.4213374853134155
1766015517133728000,9.10472802734375,6.078187465667725,-6.695425033569336,0.7766000032424927
1766015517143334700,9.114334716796876,7.083587646484375,-6.1052751541137695,2.407487392425537
1766015517152941000,9.123941162109375,7.505162239074707,-4.9581122398376465,3.3519749641418457
1766015517162547500,9.13354736328125,7.445212364196777,-3.5653750896453857,3.7794625759124756
1766015517172154400,9.143154296875,7.055537223815918,-2.2544500827789307,3.9395124912261963
1766015517181760800,9.1527607421875,6.4471001625061035,-1.1207624673843384,3.9969875812530518
1766015517191367200,9.1623671875,5.668849945068359,-0.22522500157356262,4.014037609100342
1766015517200973800,9.171973876953125,4.7550249099731445,0.4492124915122986,4.009224891662598
1766015517210580500,9.18158056640625,3.820437431335449,0.9574124813079834,3.9639875888824463
1766015517220187000,9.191186767578126,2.993375062942505,1.3410375118255615,3.8284125328063965
1766015517229793300,9.200793212890625,2.3226499557495117,1.6501375436782837,3.5718374252319336
1766015517239400000,9.21039990234375,1.81802499294281,1.8444249629974365,3.2309749126434326
1766015517249006600,9.220006591796874,1.450350046157837,1.8957124948501587,2.8754000663757324
1766015517258613200,9.22961328125,1.1913000345230103,1.8101874589920044,2.5322000980377197
1766015517268219600,9.2392197265625,0.9994875192642212,1.624424934387207,2.2193875312805176
1766015517277826300,9.248826416015625,0.7821000218391418,1.4350874423980713,1.9628125429153442
1766015517287432700,9.2584326171875,0.4302375018596649,1.3263249397277832,1.7454249858856201
1766015517297039400,9.268039306640626,-0.22220000624656677,1.3190374374389648,1.5156625509262085
1766015517306646000,9.27764599609375,-1.1127874851226807,1.382562518119812,1.2457499504089355
1766015517316252400,9.28725244140625,-2.2306625843048096,1.427799940109253,0.9488874673843384
1766015517325859000,9.296859130859374,-3.2837750911712646,1.3325124979019165,0.6543624997138977
1766015517335465700,9.3064658203125,-4.036449909210205,1.1357499361038208,0.3770250082015991
1766015517345072000,9.316072021484375,-4.472599983215332,0.8608874678611755,0.12292499840259552
1766015517354678500,9.325678466796875,-4.633749961853027,0.49802500009536743,-0.089649997651577
1766015517364285400,9.335285400390624,-4.55317497253418,0.027637500315904617,-0.24351249635219574
1766015517373891800,9.344891845703126,-4.256312370300293,-0.5037999749183655,-0.3217499852180481
1766015517383498200,9.354498291015625,-3.80792498588562,-1.0290499925613403,-0.3792249858379364
1766015517393105200,9.364105224609375,-3.245962381362915,-1.5482499599456787,-0.5880874991416931
1766015517402711600,9.373711669921875,-2.520237445831299,-2.1151623725891113,-1.0547624826431274
1766015517412318000,9.38331787109375,-1.6064125299453735,-2.6661250591278076,-1.7902499437332153
1766015517421924900,9.3929248046875,-0.555774986743927,-3.1939873695373535,-2.7395498752593994
1766015517431531000,9.402531005859375,0.64638751745224,-3.76200008392334,-3.7498998641967773
1766015517441137700,9.4121376953125,1.958549976348877,-4.261674880981445,-4.607487678527832
1766015517450744300,9.421744384765624,3.310999870300293,-4.524437427520752,-5.17921257019043
1766015517460350700,9.431350830078125,4.676787376403809,-4.374149799346924,-5.360024929046631
1766015517469957400,9.440957275390625,6.004899978637695,-3.8512375354766846,-5.029062271118164
1766015517479564000,9.45056396484375,7.161825180053711,-3.2232749462127686,-4.04428768157959
1766015517489170400,9.46017041015625,7.942412376403809,-2.6221249103546143,-2.341212511062622
1766015517498777000,9.469777099609376,8.114700317382812,-2.0381624698638916,-0.13241249322891235
1766015517508383700,9.4793837890625,7.648025035858154,-1.4616249799728394,1.9909999370574951
1766015517517990100,9.488990234375,6.5803375244140625,-0.8824750185012817,3.491262435913086
1766015517527596800,9.4985966796875,5.044600009918213,-0.2264624983072281,4.260849952697754
1766015517537203200,9.508203125,3.6053874492645264,0.3026374876499176,4.379374980926514
1766015517546809900,9.517809814453125,2.5852749347686768,0.7497875094413757,4.130087375640869
1766015517556416300,9.527416259765625,1.962262511253357,1.2262250185012817,3.819887399673462
1766015517566023000,9.53702294921875,1.629925012588501,1.8309500217437744,3.6768875122070312
1766015517575629300,9.54662939453125,1.4661624431610107,2.538249969482422,3.6976499557495117
1766015517585236200,9.556236328125,1.2792999744415283,3.234687566757202,3.7391750812530518
1766015517594842600,9.565842529296875,0.9982500076293945,3.794174909591675,3.735599994659424
1766015517604449300,9.57544921875,0.6220499873161316,4.208462715148926,3.7038373947143555
1766015517614055700,9.5850556640625,0.16871249675750732,4.469850063323975,3.658600091934204
1766015517623662300,9.594662353515625,-0.3334375023841858,4.5284247398376465,3.568125009536743
1766015517633268700,9.604268798828125,-0.8318749666213989,4.375800132751465,3.39597487449646
1766015517642875400,9.61387548828125,-1.2508374452590942,4.114274978637695,3.119737386703491
1766015517652481800,9.623481689453126,-1.5428874492645264,3.7808375358581543,2.7362499237060547
1766015517662088400,9.63308837890625,-1.7066500186920166,3.3092124462127686,2.240149974822998
1766015517671695000,9.642695068359375,-1.7602750062942505,2.727725028991699,1.6061375141143799
1766015517681301500,9.652301513671874,-1.7261749505996704,2.043524980545044,0.8046500086784363
1766015517690908200,9.661908203125,-1.6528874635696411,1.2225124835968018,-0.17393749952316284
1766015517700514800,9.671514892578125,-1.5831749439239502,0.3526875078678131,-1.2307624816894531
1766015517710121200,9.681121337890625,-1.5159374475479126,-0.5953750014305115,-2.25211238861084
1766015517719727900,9.690727783203124,-1.481837511062622,-1.682724952697754,-3.2330374717712402
1766015517729334500,9.70033447265625,-1.535599946975708,-2.846937417984009,-4.155525207519531
1766015517738941000,9.70994091796875,-1.6614124774932861,-3.907474994659424,-4.950824737548828
1766015517748547600,9.719547607421875,-1.8177499771118164,-4.7247748374938965,-5.613025188446045
1766015517758154000,9.729154052734375,-2.018087387084961,-5.611649990081787,-6.124937534332275
1766015517767760600,9.7387607421875,-2.2831873893737793,-6.813812255859375,-6.524374961853027
1766015517777367300,9.7483671875,-2.646049976348877,-8.19678783416748,-6.81642484664917
1766015517786973700,9.7579736328125,-3.1836750507354736,-9.662949562072754,-6.815187454223633
1766015517796580000,9.767580078125,-3.969212532043457,-10.96521282196045,-6.118750095367432
1766015517806186800,9.777186767578126,-5.0418500900268555,-11.740987777709961,-4.375387668609619
1766015517815793400,9.78679345703125,-6.40158748626709,-11.99632453918457,-1.7780125141143799
1766015517825400000,9.796400146484375,-7.950799942016602,-11.256025314331055,1.1027499437332153
1766015517835006500,9.80600634765625,-9.022199630737305,-9.689762115478516,3.549837589263916
1766015517844613000,9.815613037109374,-9.508399963378906,-8.163925170898438,5.403200149536133
1766015517854219800,9.8252197265625,-9.526687622070312,-7.049624919891357,6.897274971008301
1766015517863826200,9.834826171875,-9.056437492370605,-6.247037410736084,8.061624526977539
1766015517873432800,9.844432861328125,-8.203662872314453,-5.500549793243408,8.790925025939941
1766015517883039200,9.854039306640624,-7.088262557983398,-5.006925106048584,8.946162223815918
1766015517892646000,9.86364599609375,-5.748049736022949,-4.785824775695801,8.479487419128418
1766015517902252300,9.873252197265625,-4.191549777984619,-4.7002997398376465,7.666999816894531
1766015517911859000,9.88285888671875,-2.5789499282836914,-4.818824768066406,6.937699794769287
1766015517921465600,9.892465576171874,-1.0126874446868896,-5.0582122802734375,6.605362415313721
1766015517931072000,9.902072021484376,0.3544749915599823,-5.025350093841553,6.665174961090088
1766015517940678700,9.9116787109375,1.484587550163269,-4.550012588500977,6.8912248611450195
1766015517950285000,9.92128515625,2.477750062942505,-3.7266623973846436,7.108749866485596
1766015517959891700,9.9308916015625,3.417287588119507,-2.6796000003814697,7.2613749504089355
1766015517969498400,9.940498291015626,4.3053998947143555,-1.6387250423431396,7.359137535095215
1766015517979104800,9.950104736328125,5.143599987030029,-0.7492374777793884,7.4519500732421875
1766015517988711200,9.959711181640625,6.042712688446045,0.16335000097751617,7.660950183868408
1766015517998318000,9.969318115234374,7.003012657165527,1.0807499885559082,8.099437713623047
1766015518007924500,9.978924560546876,7.852075099945068,2.2035748958587646,8.770162582397461
1766015518017531000,9.98853076171875,8.214937210083008,3.600024938583374,9.46412467956543
1766015518027137500,9.998137451171875,7.848362445831299,4.864474773406982,10.00051212310791
1766015518036744000,10.007743896484374,6.659675121307373,5.755062580108643,10.36571216583252
1766015518046350600,10.0173505859375,4.753787517547607,6.188737392425537,10.524524688720703
1766015518055957200,10.026957275390625,2.502224922180176,6.038449764251709,10.429237365722656
1766015518065564000,10.03656396484375,0.32147499918937683,5.300624847412109,10.057849884033203
1766015518075170300,10.04617041015625,-1.4146000146865845,4.522375106811523,9.450650215148926
1766015518084776700,10.055776611328126,-2.580049991607666,4.24503755569458,8.660300254821777
1766015518094383400,10.06538330078125,-3.329012393951416,4.508900165557861,7.666999816894531
1766015518103990000,10.074989990234375,-3.8592123985290527,5.333624839782715,6.655412673950195
1766015518113596400,10.084596435546874,-4.362599849700928,6.477075099945068,5.855162620544434
1766015518123203000,10.094203125,-4.8683247566223145,7.499662399291992,5.278625011444092
1766015518132809700,10.103809814453125,-5.304474830627441,8.14109992980957,4.930337429046631
1766015518142416100,10.113416015625,-5.6539998054504395,8.567487716674805,4.709237575531006
1766015518152022500,10.1230224609375,-5.932437419891357,8.955924987792969,4.372087478637695
1766015518161629400,10.13262939453125,-6.1732001304626465,9.102499961853027,3.849174976348877
1766015518171235800,10.14223583984375,-6.319775104522705,9.064687728881836,3.2957375049591064
1766015518180842200,10.15184228515625,-6.131674766540527,9.29678726196289,2.628725051879883
1766015518190449000,10.161448974609375,-5.650287628173828,9.761124610900879,1.4106124639511108
1766015518200055600,10.1710556640625,-5.142087459564209,9.95775032043457,-0.30346250534057617
1766015518209662000,10.180661865234375,-4.652174949645996,9.669412612915039,-2.060299873352051
1766015518219268600,10.1902685546875,-4.196362495422363,8.61148738861084,-3.5238499641418457
1766015518228875000,10.199875,-3.79087495803833,6.530837535858154,-4.569674968719482
1766015518238481700,10.209481689453124,-3.419487476348877,3.5560250282287598,-5.173162460327148
1766015518248088000,10.219088134765625,-3.149437427520752,0.2536875009536743,-5.426024913787842
1766015518257694700,10.22869482421875,-3.0809624195098877,-2.837174892425537,-5.569025039672852
1766015518267301400,10.23830126953125,-3.154249906539917,-5.33926248550415,-5.936699867248535
1766015518276907800,10.24790771484375,-3.216675043106079,-6.8052873611450195,-6.672187328338623
1766015518286514400,10.257514404296876,-3.16043758392334,-7.103387355804443,-7.754587650299072
1766015518296121000,10.26712109375,-3.0626749992370605,-6.486424922943115,-9.076512336730957
1766015518305727500,10.2767275390625,-2.946624994277954,-5.371025085449219,-10.19314956665039
1766015518315334100,10.286334228515624,-2.8146250247955322,-4.5036749839782715,-10.755112648010254
1766015518324940800,10.29594091796875,-2.7988123893737793,-4.598962306976318,-10.639062881469727
1766015518334547200,10.305547119140625,-3.112725019454956,-5.748600006103516,-9.676424980163574
1766015518344153900,10.31515380859375,-3.8506875038146973,-7.410012245178223,-7.5482001304626465
1766015518353760300,10.32476025390625,-4.7840375900268555,-9.037324905395508,-4.244625091552734
1766015518363367000,10.334366943359376,-5.620999813079834,-10.213912010192871,-0.6931374669075012
1766015518372973600,10.3439736328125,-6.294062614440918,-10.481487274169922,2.1240999698638916
1766015518382580000,10.353580078125,-6.826737403869629,-9.535900115966797,3.9285125732421875
1766015518392186600,10.3631865234375,-6.842687606811523,-7.954925060272217,4.712949752807617
1766015518401793000,10.37279296875,-6.44682502746582,-6.454662322998047,4.788712501525879
1766015518411399700,10.382399658203125,-5.751625061035156,-5.351500034332275,4.57242488861084
1766015518421006300,10.39200634765625,-4.797512531280518,-4.680775165557861,4.292612552642822
1766015518430612700,10.40161279296875,-3.834737539291382,-4.132287502288818,4.097225189208984
1766015518440219400,10.411219482421876,-2.8183374404907227,-3.6716625690460205,4.010462284088135
1766015518449825800,10.42082568359375,-1.9362750053405762,-3.5238499641418457,3.9957499504089355
1766015518459432400,10.430432373046875,-1.381600022315979,-3.5946624279022217,4.169274806976318
1766015518469038800,10.440038818359374,-1.0774500370025635,-3.84271240234375,4.649425029754639
1766015518478645500,10.4496455078125,-0.8514000177383423,-4.170100212097168,5.431250095367432
1766015518488252200,10.459252197265625,-0.5130124688148499,-4.3887248039245605,6.2999749183654785
1766015518497858600,10.468858642578125,0.03918749839067459,-4.342387676239014,6.925462245941162
1766015518507465200,10.47846533203125,0.7404375076293945,-3.968524932861328,7.193037509918213
1766015518517071600,10.488071533203126,1.4588749408721924,-3.185462474822998,7.145325183868408
1766015518526678300,10.49767822265625,2.2065999507904053,-1.746250033378601,6.837462425231934
1766015518536284700,10.50728466796875,3.1119000911712646,0.3684999942779541,6.3755998611450195
1766015518545891300,10.516891357421875,4.0598249435424805,2.835249900817871,5.910162448883057
1766015518555497700,10.526497802734376,4.874787330627441,5.476487636566162,5.603537559509277
1766015518565104600,10.536104736328125,5.426987648010254,7.8552374839782715,5.595012664794922
1766015518574711000,10.5457109375,5.651800155639648,9.409262657165527,5.956637382507324
1766015518584317400,10.5553173828125,5.467275142669678,10.035987854003906,6.652937412261963
1766015518593924000,10.564924072265624,4.692737579345703,10.048225402832031,7.467899799346924
1766015518603530800,10.57453076171875,3.3598124980926514,9.575362205505371,8.169150352478027
1766015518613137200,10.58413720703125,1.7337374687194824,8.664012908935547,8.593062400817871
1766015518622743800,10.593743896484375,0.04661250114440918,7.642662525177002,8.532011985778809
1766015518632350500,10.6033505859375,-1.4683624505996704,6.992700099945068,7.9076247215271
1766015518641956900,10.612956787109376,-2.615525007247925,6.798412322998047,6.852174758911133
1766015518651563300,10.622563232421875,-3.412062406539917,6.931650161743164,5.553487300872803
1766015518661170200,10.632170166015625,-3.875162363052368,7.354324817657471,4.208324909210205
1766015518670776600,10.641776611328124,-4.042500019073486,8.06410026550293,3.012350082397461
1766015518680383200,10.65138330078125,-4.099975109100342,9.02563762664795,2.077625036239624
1766015518689989600,10.66098974609375,-4.153737545013428,9.833174705505371,1.3838000297546387
1766015518699596000,10.670595947265625,-4.203787326812744,10.120274543762207,0.914650022983551
1766015518709202700,10.68020263671875,-4.22578763961792,9.971224784851074,0.6738874912261963
1766015518718809300,10.689809326171876,-4.269787311553955,9.458074569702148,0.5468375086784363
1766015518728415700,10.699415771484375,-4.354074954986572,8.518537521362305,0.36973750591278076
1766015518738022400,10.7090224609375,-4.48360013961792,7.230849742889404,0.04358749836683273
1766015518747628800,10.71862890625,-4.601987361907959,5.703774929046631,-0.3852750062942505
1766015518757235500,10.7282353515625,-4.548224925994873,4.0739874839782715,-0.9534249901771545
1766015518766841900,10.737841796875,-4.241600036621094,2.605487585067749,-1.812250018119812
1766015518776448500,10.747448486328125,-3.734637498855591,1.3960374593734741,-2.9068875312805176
1766015518786055200,10.75705517578125,-3.173912525177002,0.29397499561309814,-3.993000030517578
1766015518795661600,10.76666162109375,-2.809812545776367,-0.8129000067710876,-4.937349796295166
1766015518805268200,10.776268310546875,-2.7523374557495117,-1.9600625038146973,-5.713124752044678
1766015518814874600,10.78587451171875,-2.8818624019622803,-3.141462564468384,-6.310562610626221
1766015518824481300,10.795481201171874,-3.0809624195098877,-4.349675178527832,-6.769949913024902
1766015518834088000,10.805087890625,-3.29229998588562,-5.6434125900268555,-7.130337238311768
1766015518843694300,10.8146943359375,-3.545300006866455,-7.115624904632568,-7.303862571716309
1766015518853301000,10.824301025390625,-3.9117374420166016,-8.683124542236328,-6.929999828338623
1766015518862907400,10.833907470703124,-4.428599834442139,-9.8828125,-5.6215500831604
1766015518872514000,10.84351416015625,-5.106612682342529,-10.514487266540527,-3.6020874977111816
1766015518882120700,10.85312060546875,-5.811574935913086,-10.503487586975098,-1.6179624795913696
1766015518891727000,10.86272705078125,-6.31853723526001,-9.362375259399414,-0.07493750005960464
1766015518901333800,10.872333740234374,-6.3282999992370605,-7.131575107574463,0.8743624687194824
1766015518910940200,10.881940185546876,-5.691812515258789,-4.3459625244140625,1.273800015449524
1766015518920546800,10.891546875,-4.511650085449219,-1.562962532043457,1.325087547302246
1766015518930153500,10.901153564453125,-3.0456249713897705,0.7948874831199646,1.124750018119812
1766015518939759900,10.910759765625,-1.6211249828338623,2.5492498874664307,0.7533624768257141
1766015518949366500,10.920366455078126,-0.4542999863624573,3.6805999279022217,0.35378751158714294
1766015518958973000,10.929972900390625,0.42528748512268066,4.187562465667725,0.06311249732971191
1766015518968579600,10.93957958984375,1.039775013923645,4.058175086975098,-0.07617499679327011
1766015518978186200,10.949186279296875,1.4954500198364258,3.3800249099731445,-0.11522500216960907
1766015518987792600,10.958792724609374,1.9450750350952148,2.496725082397461,-0.1629374921321869
1766015518997399300,10.9683994140625,2.406937599182129,1.7173750400543213,-0.3278000056743622
1766015519007005700,10.978005615234375,2.821087598800659,1.228700041770935,-0.4012250006198883
1766015519016612000,10.987612060546875,3.105712413787842,1.194462537765503,-0.021175000816583633
1766015519026218800,10.99721875,3.23152494430542,1.6684249639511108,1.0172250270843506
1766015519035825400,11.006825439453126,3.0691375732421875,2.2915749549865723,2.605487585067749
1766015519045431800,11.016431884765625,2.5840375423431396,2.849824905395508,4.321899890899658
1766015519055038500,11.02603857421875,1.9780750274658203,3.289687395095825,5.612062454223633
1766015519064645000,11.03564501953125,1.429587483406067,3.747837543487549,6.219262599945068
1766015519074251500,11.04525146484375,1.043487548828125,4.163225173950195,6.225450038909912
1766015519083858200,11.054858154296875,0.8589624762535095,4.461325168609619,5.8258748054504395
1766015519093464600,11.064464599609375,0.7869125008583069,4.733712673187256,5.2382001876831055
1766015519103071200,11.0740712890625,0.7319124937057495,4.870524883270264,4.738524913787842
1766015519112677600,11.083677734375,0.5841000080108643,4.804524898529053,4.5113749504089355
1766015519122284300,11.0932841796875,0.22247499227523804,4.485662460327148,4.544374942779541
1766015519131891000,11.102890869140625,-0.3834874927997589,3.891937494277954,4.722712516784668
1766015519141497300,11.112497314453124,-1.1360249519348145,3.1039249897003174,4.853337287902832
1766015519151103700,11.122103759765626,-1.8165124654769897,2.300100088119507,4.726287364959717
1766015519160710700,11.131710693359375,-2.216087579727173,1.5683250427246094,4.165562629699707
1766015519170317000,11.141317138671875,-2.274662494659424,0.8914124965667725,3.127162456512451
1766015519179923500,11.15092333984375,-2.0230374336242676,0.15592500567436218,1.7062374353408813
1766015519189530000,11.160530029296876,-1.5991250276565552,-0.6528499722480774,0.08868750184774399
1766015519199136800,11.17013671875,-1.1653125286102295,-1.4566749334335327,-1.4811500310897827
1766015519208743200,11.1797431640625,-0.8452125191688538,-2.2349250316619873,-2.849412441253662
1766015519218349800,11.189349853515624,-0.7108749747276306,-2.8689374923706055,-3.9722375869750977
1766015519227956500,11.19895654296875,-0.7389249801635742,-3.2575125694274902,-4.942299842834473
1766015519237563000,11.20856298828125,-0.8281624913215637,-3.4138500690460205,-5.779124736785889
1766015519247169500,11.21816943359375,-0.866112470626831,-3.451662540435791,-6.354562282562256
1766015519256776200,11.227776123046874,-0.8441125154495239,-3.459087371826172,-6.5500874519348145
1766015519266382600,11.237382568359376,-0.7108749747276306,-3.4981374740600586,-6.431562423706055
1766015519275989000,11.246989013671875,-0.4824874997138977,-3.843950033187866,-6.1895623207092285
1766015519285596000,11.256595947265625,-0.12443749606609344,-4.280099868774414,-5.841412544250488
1766015519295202300,11.266202392578125,0.2677125036716461,-4.528012275695801,-5.396737575531006
1766015519304808700,11.27580859375,0.6183375120162964,-4.609962463378906,-4.728487491607666
1766015519314415400,11.285415283203125,0.9102500081062317,-4.146862506866455,-3.377274990081787
1766015519324022000,11.29502197265625,1.026437520980835,-2.9716498851776123,-1.2722874879837036
1766015519333628400,11.30462841796875,0.9554874897003174,-1.2941499948501587,1.099037528038025
1766015519343235000,11.314235107421876,0.9201499819755554,0.6263124942779541,3.1821625232696533
1766015519352841700,11.323841796875,1.0422500371932983,2.3513875007629395,4.541900157928467
1766015519362448100,11.3334482421875,1.2988250255584717,3.551074981689453,5.116099834442139
1766015519372054800,11.3430546875,1.5614500045776367,4.190037250518799,5.111149787902832
1766015519381661400,11.352661376953124,1.6739250421524048,4.340324878692627,4.846049785614014
1766015519391267800,11.362267822265625,1.5859249830245972,4.181512355804443,4.682425022125244
1766015519400874500,11.37187451171875,1.3623499870300293,3.942125082015991,4.759287357330322
1766015519410481200,11.381481201171875,1.03125,3.6623125076293945,4.921812534332275
1766015519420087600,11.391087646484374,0.5890499949455261,3.2847375869750977,4.992624759674072
1766015519429694000,11.40069384765625,0.12347500026226044,2.876775026321411,4.822812557220459
1766015519439300600,11.410300537109375,-0.28943750262260437,2.428387403488159,4.3109002113342285
1766015519448907300,11.4199072265625,-0.5777750015258789,1.8969500064849854,3.4375
1766015519458513700,11.429513671875,-0.7096375226974487,1.290987491607666,2.3684375286102295
1766015519468120300,11.439120361328126,-0.7451124787330627,0.5774999856948853,1.2457499504089355
1766015519477726700,11.448726806640625,-0.765874981880188,-0.304562509059906,0.1083500012755394
1766015519487333400,11.45833349609375,-0.7719249725341797,-1.2148125171661377,-1.0107624530792236
1766015519496939800,11.467939697265624,-0.7511624693870544,-1.9050624370574951,-2.1273999214172363
1766015519506546400,11.47754638671875,-0.7231125235557556,-2.2947375774383545,-3.2612249851226807
1766015519516152800,11.48715283203125,-0.695062518119812,-2.381500005722046,-4.326574802398682
1766015519525759500,11.496759521484375,-0.6718249917030334,-2.245924949645996,-5.219637393951416
1766015519535366100,11.5063662109375,-0.6608250141143799,-2.083400011062622,-5.881700038909912
1766015519544972800,11.515972900390626,-0.5935875177383423,-1.991824984550476,-6.314274787902832
1766015519554579200,11.5255791015625,-0.4030124843120575,-2.1762125492095947,-6.659949779510498
1766015519564185900,11.535185791015625,-0.045099999755620956,-2.8689374923706055,-6.958049774169922
1766015519573792300,11.544792236328124,0.39723750948905945,-3.6654748916625977,-6.9629998207092285
1766015519583399000,11.55439892578125,0.690387487411499,-4.0968122482299805,-6.4596123695373535
1766015519593005300,11.56400537109375,0.7063375115394592,-3.941575050354004,-5.324687480926514
1766015519602612000,11.573612060546875,0.5145249962806702,-3.1865625381469727,-3.5055625438690186
1766015519612218400,11.58321826171875,0.27018749713897705,-2.0259249210357666,-1.1585749387741089
1766015519621825000,11.592824951171876,0.24323749542236328,-0.8727124929428101,1.2677500247955322
1766015519631431400,11.602431396484375,0.5853375196456909,0.15963749587535858,3.3482625484466553
1766015519641038300,11.612038330078125,1.176587462425232,1.374037504196167,4.8107123374938965
1766015519650644700,11.621644775390624,1.734974980354309,2.7875375747680664,5.510725021362305
1766015519660251100,11.631251220703126,2.0085999965667725,3.940887451171875,5.54372501373291
1766015519669857800,11.64085791015625,2.001312494277954,4.645712375640869,5.296912670135498
1766015519679464400,11.65046435546875,1.7582124471664429,4.9487624168396,5.139337539672852
1766015519689070800,11.66007080078125,1.3928749561309814,4.886475086212158,5.134387493133545
1766015519698677500,11.669677490234376,1.0385375022888184,4.627425193786621,5.169862270355225
1766015519708284000,11.679283935546875,0.7026249766349792,4.311037540435791,5.178387641906738
1766015519717890600,11.688890625,0.3349500000476837,3.8724124431610107,5.045149803161621
1766015519727497200,11.698497314453125,-0.04262499883770943,3.3459250926971436,4.615187644958496
1766015519737103600,11.708103515625,-0.3394874930381775,2.8120124340057373,3.821125030517578
1766015519746710000,11.7177099609375,-0.5300624966621399,2.175524950027466,2.7362499237060547
1766015519756316700,11.727316650390625,-0.6375874876976013,1.4130874872207642,1.453374981880188
1766015519765923300,11.73692333984375,-0.7108749747276306,0.5579749941825867,0.09363749623298645
1766015519775530000,11.746530029296874,-0.8061624765396118,-0.2777499854564667,-1.2038124799728394
1766015519785136400,11.756136474609375,-0.9112125039100647,-0.9679999947547913,-2.379162549972534
1766015519794743000,11.765742919921875,-1.0162625312805176,-1.463962435722351,-3.401750087738037
1766015519804349400,11.775349365234375,-1.1372624635696411,-1.796299934387207,-4.289862632751465
1766015519813956000,11.7849560546875,-1.2887874841690063,-1.9991124868392944,-5.11692476272583
1766015519823562500,11.7945625,-1.435362458229065,-2.123687505722046,-5.930649757385254
1766015519833169200,11.804169189453125,-1.5258375406265259,-2.1958749294281006,-6.754000186920166
1766015519842775800,11.81377587890625,-1.5551249980926514,-2.298449993133545,-7.6202497482299805
1766015519852382200,11.82338232421875,-1.5233625173568726,-2.6490750312805176,-8.463262557983398
1766015519861988900,11.83298876953125,-1.3620749711990356,-3.313612461090088,-8.942174911499023
1766015519871595300,11.84259521484375,-1.0126874446868896,-3.7730000019073486,-8.585362434387207
1766015519881202000,11.852201904296875,-0.647350013256073,-3.8988125324249268,-7.198812484741211
1766015519890808600,11.86180859375,-0.45182499289512634,-3.895237445831299,-5.25621223449707
1766015519900415000,11.8714150390625,-0.4250124990940094,-3.589712381362915,-3.561800003051758
1766015519910021400,11.881021484375,-0.4885374903678894,-2.824937582015991,-2.4877874851226807
1766015519919628300,11.890628173828125,-0.5581125020980835,-1.8695875406265259,-1.9197750091552734
1766015519929234700,11.900234619140624,-0.5263500213623047,-1.0767624378204346,-1.5606249570846558
1766015519938841000,11.909841064453126,-0.32120001316070557,-0.4683249890804291,-1.038949966430664
1766015519948447700,11.91944775390625,0.042899999767541885,-0.03464999794960022,-0.19841249287128448
1766015519958054400,11.929054443359375,0.5193374752998352,0.31968748569488525,0.8962249755859375
1766015519967660800,11.938660888671874,1.043487548828125,0.7155500054359436,2.0556249618530273
1766015519977267500,11.948267333984376,1.5578750371932983,1.128462553024292,3.0489249229431152
1766015519986874000,11.9578740234375,1.9878374338150024,1.5585625171661377,3.718412399291992
1766015519996480500,11.96748046875,2.2506000995635986,2.0532875061035156,4.016512393951416
1766015520006087200,11.977087158203124,2.3506999015808105,2.508962392807007,4.027512550354004
1766015520015693600,11.986693603515626,2.282362461090088,2.8327748775482178,3.901700019836426
1766015520025300200,11.99630029296875,1.9658374786376953,3.0111124515533447,3.683074951171875
1766015520034907000,12.005906982421875,1.3903999328613281,2.9853999614715576,3.3104500770568848
1766015520044513500,12.015513427734374,0.6623374819755554,2.6092000007629395,2.8216373920440674
1766015520054120000,12.025119873046876,-0.04633750021457672,1.9824750423431396,2.4221999645233154
1766015520063726600,12.0347265625,-0.6656374931335449,1.2506999969482422,2.1718125343322754
1766015520073333000,12.0443330078125,-1.2044999599456787,0.44673749804496765,1.9005249738693237
1766015520082939600,12.053939697265625,-1.6369374990463257,-0.3180375099182129,1.4900875091552734
1766015520092546000,12.063546142578126,-1.8775625228881836,-0.8837124705314636,1.0367499589920044
1766015520102153000,12.073153076171875,-1.902037501335144,-1.1438624858856201,0.6287875175476074
1766015520111759400,12.08275927734375,-1.7872250080108643,-1.2270499467849731,0.19373749196529388
1766015520121365800,12.09236572265625,-1.6491750478744507,-1.305150032043457,-0.4109874963760376
1766015520130972400,12.101972412109374,-1.5758874416351318,-1.4664374589920044,-1.262524962425232
1766015520140579000,12.1115791015625,-1.569700002670288,-1.6594874858856201,-2.2666873931884766
1766015520150185500,12.121185546875,-1.5721750259399414,-1.7315374612808228,-3.321037530899048
1766015520159791900,12.1307919921875,-1.539175033569336,-1.6972999572753906,-4.3375749588012695
1766015520169398500,12.1403984375,-1.4830750226974487,-1.6545374393463135,-5.182924747467041
1766015520179005200,12.150005126953126,-1.4085500240325928,-1.6851999759674072,-5.8256001472473145
1766015520188611600,12.159611572265625,-1.3253624439239502,-1.8012499809265137,-6.319087505340576
1766015520198218200,12.16921826171875,-1.2692625522613525,-2.054112434387207,-6.721137523651123
1766015520207824600,12.17882470703125,-1.232550024986267,-2.3754498958587646,-7.068049907684326
1766015520217431300,12.188431396484376,-1.3058375120162964,-2.5647873878479004,-7.417437553405762
1766015520227037700,12.19803759765625,-1.5881249904632568,-2.4890248775482178,-7.692299842834473
1766015520236644000,12.20764404296875,-1.9790375232696533,-2.1641125679016113,-7.677724838256836
1766015520246251000,12.2172509765625,-2.3027124404907227,-1.8623000383377075,-7.1658124923706055
1766015520255857400,12.226857421875,-2.6435749530792236,-1.5361499786376953,-5.85860013961792
1766015520265464000,12.236464111328125,-2.659524917602539,-1.021762490272522,-3.8171374797821045
1766015520275070700,12.24607080078125,-2.264899969100952,-0.3363249897956848,-1.4163874387741089
1766015520284677000,12.255677001953124,-1.5904624462127686,0.4394499957561493,0.9366499781608582
1766015520294283500,12.265283447265626,-0.691349983215332,1.277512550354004,2.948824882507324
1766015520303890200,12.27489013671875,0.408237487077713,2.103337526321411,4.39766263961792
1766015520313496800,12.284496826171875,1.5896375179290771,2.8560125827789307,5.217437267303467
1766015520323103200,12.294103271484374,2.7270374298095703,3.4057374000549316,5.513062477111816
1766015520332710000,12.3037099609375,3.6726250648498535,3.735599994659424,5.4300127029418945
1766015520342316500,12.313316650390625,4.35682487487793,3.929887533187866,5.184437274932861
1766015520351923000,12.3229228515625,4.7245001792907715,3.9677000045776367,4.976812362670898
1766015520361529300,12.332529296875,4.706212520599365,3.646362543106079,4.94504976272583
1766015520371136000,12.342135986328126,4.221112251281738,2.9317750930786133,5.109912395477295
1766015520380742700,12.35174267578125,3.242525100708008,1.977524995803833,5.288387298583984
1766015520390349000,12.36134912109375,1.8730249404907227,1.0111750364303589,5.173437595367432
