time,seconds_elapsed,z,y,x
1766015508266877000,0.237876953125,8.818950653076172,3.3330001831054688,-1.396950125694275
1766015508276483300,0.2474833984375,8.794950485229492,3.478950262069702,-1.15500009059906
1766015508286090000,0.257090087890625,8.85105037689209,3.5410501956939697,-0.7579500079154968
1766015508295696400,0.2666962890625,8.866950035095215,3.4860000610351562,-0.3079500198364258
1766015508305303000,0.276302978515625,8.87700080871582,3.4240500926971436,0.04605000093579292
1766015508314909700,0.28590966796875,8.830950736999512,3.3930001258850098,0.27105000615119934
1766015508324516000,0.29551611328125,8.913000106811523,3.409050226211548,0.31905001401901245
1766015508334122500,0.30512255859375,9.031949996948242,3.4429502487182617,0.13905000686645508
1766015508343729200,0.314729248046875,9.115950584411621,3.390000104904175,-0.0799500048160553
1766015508353335800,0.324335693359375,9.270000457763672,3.2730002403259277,-0.2880000174045563
1766015508362942500,0.3339423828125,9.439949989318848,3.1630501747131348,-0.3910500109195709
1766015508372548900,0.343548828125,9.538050651550293,3.0360002517700195,-0.5040000081062317
1766015508382155300,0.3531552734375,9.523050308227539,2.9539501667022705,-0.7669500112533569
1766015508391762000,0.362761962890625,9.508950233459473,2.899050235748291,-0.973050057888031
1766015508401368300,0.372368408203125,9.483000755310059,2.883000135421753,-1.0039499998092651
1766015508410975000,0.38197509765625,9.454050064086914,2.8470001220703125,-0.9679500460624695
1766015508420581600,0.39158154296875,9.427950859069824,2.8249502182006836,-0.9760500192642212
1766015508430188000,0.40118798828125,9.544950485229492,2.8660502433776855,-0.9949500560760498
1766015508439794400,0.41079443359375,9.745950698852539,2.908950090408325,-1.0090500116348267
1766015508449401000,0.420401123046875,9.925950050354004,2.887050151824951,-1.0500000715255737
1766015508459007500,0.430007568359375,10.048050880432129,2.7529501914978027,-0.9610500335693359
1766015508468614100,0.4396142578125,10.122000694274902,2.641050100326538,-0.7890000343322754
1766015508478220500,0.449220458984375,10.179000854492188,2.5759501457214355,-0.7150500416755676
1766015508487827200,0.4588271484375,10.231950759887695,2.5500001907348633,-0.7669500112533569
1766015508497433600,0.46843359375,10.25100040435791,2.578050136566162,-0.8490000367164612
1766015508507040300,0.478040283203125,10.231950759887695,2.63100004196167,-0.9919500350952148
1766015508516646700,0.487646728515625,10.191000938415527,2.6620500087738037,-1.1500500440597534
1766015508526253300,0.49725341796875,10.093050003051758,2.6550002098083496,-1.1839500665664673
1766015508535859700,0.506859619140625,9.993000030517578,2.653050184249878,-1.1530500650405884
1766015508545466400,0.51646630859375,9.91395092010498,2.634000062942505,-1.0980000495910645
1766015508555072800,0.52607275390625,9.829950332641602,2.634000062942505,-0.9900000691413879
1766015508564679400,0.535679443359375,9.760050773620605,2.6260502338409424,-0.89205002784729
1766015508574286000,0.5452861328125,9.736050605773926,2.6479501724243164,-0.8029500246047974
1766015508583892500,0.554892578125,9.744000434875488,2.6550002098083496,-0.7429500222206116
1766015508593499100,0.5644990234375,9.717000007629395,2.680950164794922,-0.7290000319480896
1766015508603105500,0.57410546875,9.684000015258789,2.722050189971924,-0.7740000486373901
1766015508612712200,0.583712158203125,9.669000625610352,2.7649500370025635,-0.8509500622749329
1766015508622318600,0.593318603515625,9.73905086517334,2.748000144958496,-0.9490500688552856
1766015508631925200,0.60292529296875,9.72705078125,2.7649500370025635,-1.0210500955581665
1766015508641532000,0.612531982421875,9.69105052947998,2.7460501194000244,-1.0429500341415405
1766015508651138300,0.62213818359375,9.600000381469727,2.7340500354766846,-0.9760500192642212
1766015508660744700,0.63174462890625,9.442049980163574,2.743950128555298,-0.8269500136375427
1766015508670351400,0.641351318359375,9.301050186157227,2.770050048828125,-0.7270500063896179
1766015508679958000,0.6509580078125,9.21405029296875,2.839050054550171,-0.6859500408172607
1766015508689564400,0.660564453125,9.103950500488281,2.899050235748291,-0.6930000185966492
1766015508699171000,0.670171142578125,8.982000350952148,2.902050256729126,-0.6640500426292419
1766015508708777700,0.67977783203125,8.890950202941895,2.868000030517578,-0.6210000514984131
1766015508718384000,0.689384033203125,8.920050621032715,2.8780500888824463,-0.6360000371932983
1766015508727990800,0.69899072265625,9.070950508117676,2.9059500694274902,-0.6670500040054321
1766015508737597200,0.70859716796875,9.181050300598145,2.92995023727417,-0.6829500198364258
1766015508747203800,0.718203857421875,9.292950630187988,2.9040000438690186,-0.6790500283241272
1766015508756810200,0.727810302734375,9.352950096130371,2.8590002059936523,-0.6520500183105469
1766015508766416600,0.737416748046875,9.39900016784668,2.8320000171661377,-0.5899500250816345
1766015508776023300,0.747023193359375,9.394050598144531,2.8510501384735107,-0.5059500336647034
1766015508785630000,0.7566298828125,9.43005084991455,2.848950147628784,-0.4420500099658966
1766015508795236400,0.766236328125,9.382050514221191,2.8249502182006836,-0.38895002007484436
1766015508804843000,0.775843017578125,9.265050888061523,2.839050054550171,-0.43695002794265747
1766015508814449400,0.785449462890625,9.109050750732422,2.8540501594543457,-0.5230500102043152
1766015508824056000,0.79505615234375,8.961000442504883,2.9160001277923584,-0.6430500149726868
1766015508833662500,0.804662353515625,8.805000305175781,2.9830501079559326,-0.739050030708313
1766015508843269000,0.81426904296875,8.695050239562988,3.0480000972747803,-0.7840500473976135
1766015508852875500,0.82387548828125,8.635050773620605,3.1030502319335938,-0.7579500079154968
1766015508862482000,0.83348193359375,8.59005069732666,3.129000186920166,-0.6949500441551208
1766015508872088800,0.8430888671875,8.605950355529785,3.136050224304199,-0.6760500073432922
1766015508881695200,0.8526953125,8.740050315856934,3.166950225830078,-0.6600000262260437
1766015508891301600,0.862301513671875,8.913000106811523,3.2130000591278076,-0.6400500535964966
1766015508900908000,0.871907958984375,8.994000434875488,3.1960501670837402,-0.6619500517845154
1766015508910515000,0.881514892578125,9.147000312805176,3.117000102996826,-0.6520500183105469
1766015508920121300,0.891121337890625,9.277050018310547,3.0480000972747803,-0.612000048160553
1766015508929727700,0.900727783203125,9.391950607299805,2.9880001544952393,-0.544950008392334
1766015508939334400,0.91033447265625,9.483000755310059,2.9280002117156982,-0.5040000081062317
1766015508948941000,0.919941162109375,9.583050727844238,2.8950002193450928,-0.46800002455711365
1766015508958547500,0.92954736328125,9.717000007629395,2.848950147628784,-0.4320000112056732
1766015508968154000,0.939154052734375,9.793950080871582,2.82705020904541,-0.42000001668930054
1766015508977760800,0.9487607421875,9.838950157165527,2.788950204849243,-0.42000001668930054
1766015508987367200,0.9583671875,9.909000396728516,2.739000082015991,-0.40095001459121704
1766015508996973800,0.967973876953125,9.949050903320312,2.6959500312805176,-0.3840000033378601
1766015509006580200,0.977580322265625,9.930000305175781,2.6770501136779785,-0.4230000078678131
1766015509016186600,0.9871865234375,9.870000839233398,2.7150001525878906,-0.5490000247955322
1766015509025793300,0.996793212890625,9.787050247192383,2.725050210952759,-0.5809500217437744
1766015509035400000,1.00639990234375,9.688950538635254,2.7199501991271973,-0.5179499983787537
1766015509045006300,1.01600634765625,9.586050033569336,2.683950185775757,-0.4540500342845917
1766015509054613000,1.025613037109375,9.49905014038086,2.6449501514434814,-0.41805002093315125
1766015509064219600,1.0352197265625,9.432000160217285,2.6430001258850098,-0.38700002431869507
1766015509073826000,1.044825927734375,9.43005084991455,2.5980000495910645,-0.37905001640319824
1766015509083432700,1.0544326171875,9.472949981689453,2.571000099182129,-0.39900001883506775
1766015509093039000,1.0640390625,9.508950233459473,2.5380001068115234,-0.4540500342845917
1766015509102645800,1.073645751953125,9.468000411987305,2.514000177383423,-0.5760000348091125
1766015509112252200,1.083252197265625,9.38895034790039,2.521050214767456,-0.6720000505447388
1766015509121858800,1.09285888671875,9.303000450134277,2.590050220489502,-0.7240500450134277
1766015509131465500,1.102465576171875,9.199950218200684,2.6070001125335693,-0.6690000295639038
1766015509141072000,1.11207177734375,9.205050468444824,2.5860002040863037,-0.4939500093460083
1766015509150678300,1.12167822265625,9.234000205993652,2.6050500869750977,-0.36705002188682556
1766015509160285000,1.131284912109375,9.241050720214844,2.6100001335144043,-0.3079500198364258
1766015509169891600,1.1408916015625,9.234000205993652,2.559000015258789,-0.24795001745224
1766015509179498000,1.150498046875,9.27405071258545,2.431950092315674,-0.0799500048160553
1766015509189104600,1.160104736328125,9.396000862121582,2.3959500789642334,0.022050000727176666
1766015509198711300,1.169711181640625,9.553950309753418,2.3869500160217285,-0.006000000052154064
1766015509208317700,1.179317626953125,9.676950454711914,2.4400501251220703,-0.14205001294612885
1766015509217924000,1.188924072265625,9.7339506149292,2.4850502014160156,-0.31995001435279846
1766015509227530800,1.19853076171875,9.732000350952148,2.499000072479248,-0.46095001697540283
1766015509237137200,1.20813720703125,9.720000267028809,2.511000156402588,-0.5879999995231628
1766015509246743800,1.217743896484375,9.69105052947998,2.5309500694274902,-0.7189500331878662
1766015509256350500,1.2273505859375,9.592950820922852,2.551950216293335,-0.736050009727478
1766015509265956900,1.236956787109375,9.496950149536133,2.521050214767456,-0.6880500316619873
1766015509275563500,1.2465634765625,9.495000839233398,2.499000072479248,-0.609000027179718
1766015509285170200,1.256170166015625,9.547050476074219,2.5039501190185547,-0.5350500345230103
1766015509294776600,1.265776611328125,9.562050819396973,2.5069501399993896,-0.492000013589859
1766015509304383200,1.27538330078125,9.538050651550293,2.4679501056671143,-0.492000013589859
1766015509313990000,1.284989990234375,9.577950477600098,2.3650500774383545,-0.5040000081062317
1766015509323596300,1.29459619140625,9.645000457763672,2.322000026702881,-0.5350500345230103
1766015509333203000,1.304202880859375,9.757950782775879,2.3170502185821533,-0.6190500259399414
1766015509342809300,1.313809326171875,9.874950408935547,2.3749501705169678,-0.6400500535964966
1766015509352415700,1.323415771484375,9.954000473022461,2.4130501747131348,-0.6040500402450562
1766015509362022400,1.3330224609375,9.99000072479248,2.4370501041412354,-0.527999997138977
1766015509371628800,1.34262890625,10.018950462341309,2.4400501251220703,-0.34095001220703125
1766015509381235500,1.3522353515625,9.994950294494629,2.4370501041412354,-0.13005000352859497
1766015509390842000,1.361842041015625,9.95895004272461,2.5039501190185547,0.004950000438839197
1766015509400448500,1.371448486328125,9.874950408935547,2.539950132369995,0.04800000041723251
1766015509410055200,1.38105517578125,9.784050941467285,2.5759501457214355,0.034050002694129944
1766015509419661800,1.390661865234375,9.67905044555664,2.5879502296447754,-0.031950000673532486
1766015509429268200,1.400268310546875,9.595050811767578,2.5879502296447754,-0.13500000536441803
1766015509438875000,1.409875,9.49905014038086,2.5950000286102295,-0.29100000858306885
1766015509448481300,1.419481201171875,9.407999992370605,2.6050500869750977,-0.41100001335144043
1766015509458088000,1.429087890625,9.343950271606445,2.562000036239624,-0.4300500154495239
1766015509467694300,1.4386943359375,9.346050262451172,2.502000093460083,-0.37005001306533813
1766015509477300700,1.44830078125,9.355950355529785,2.45205020904541,-0.36705002188682556
1766015509486907400,1.457907470703125,9.337050437927246,2.4400501251220703,-0.37005001306533813
1766015509496514000,1.46751416015625,9.351000785827637,2.449050188064575,-0.38895002007484436
1766015509506120700,1.47712060546875,9.37695026397705,2.4870002269744873,-0.41100001335144043
1766015509515727000,1.48672705078125,9.41100025177002,2.5260000228881836,-0.4339500069618225
1766015509525333800,1.496333740234375,9.42300033569336,2.5500001907348633,-0.46095001697540283
1766015509534940200,1.505940185546875,9.37695026397705,2.578050136566162,-0.5179499983787537
1766015509544546800,1.515546875,9.322050094604492,2.5690500736236572,-0.583050012588501
1766015509554153500,1.525153564453125,9.289050102233887,2.5830001831054688,-0.625950038433075
1766015509563759900,1.534759765625,9.265050888061523,2.6359500885009766,-0.7050000429153442
1766015509573366500,1.544366455078125,9.22605037689209,2.69100022315979,-0.778950035572052
1766015509582973200,1.55397314453125,9.19005012512207,2.7199501991271973,-0.8509500622749329
1766015509592579600,1.56357958984375,9.159000396728516,2.7049500942230225,-0.9180000424385071
1766015509602186000,1.57318603515625,9.121050834655762,2.653050184249878,-0.9559500217437744
1766015509611792600,1.582792724609375,9.094950675964355,2.6260502338409424,-0.9850500226020813
1766015509621399300,1.5923994140625,9.046950340270996,2.6140501499176025,-1.0669500827789307
1766015509631005700,1.602005615234375,9.058950424194336,2.638050079345703,-1.1650500297546387
1766015509640612400,1.6116123046875,9.12600040435791,2.659950017929077,-1.1959500312805176
1766015509650219000,1.621218994140625,9.265050888061523,2.69100022315979,-1.1530500650405884
1766015509659825400,1.630825439453125,9.442049980163574,2.748000144958496,-1.078950047492981
1766015509669431800,1.640431884765625,9.571050643920898,2.808000087738037,-1.0110000371932983
1766015509679038700,1.650038818359375,9.645000457763672,2.7940502166748047,-0.9559500217437744
1766015509688645000,1.65964501953125,9.676950454711914,2.763000249862671,-0.8730000257492065
1766015509698251500,1.66925146484375,9.751049995422363,2.7169501781463623,-0.8680500388145447
1766015509707858200,1.678858154296875,9.796050071716309,2.725050210952759,-0.89205002784729
1766015509717464800,1.68846484375,9.784050941467285,2.7079501152038574,-0.9610500335693359
1766015509727071200,1.6980712890625,9.73905086517334,2.63100004196167,-1.0429500341415405
1766015509736677600,1.707677734375,9.681000709533691,2.5570502281188965,-1.1220000982284546
1766015509746284500,1.717284423828125,9.633000373840332,2.5350000858306885,-1.2460500001907349
1766015509755891000,1.726890869140625,9.631050109863281,2.562000036239624,-1.4329500198364258
1766015509765497600,1.73649755859375,9.589950561523438,2.590050220489502,-1.6000500917434692
1766015509775104300,1.746104248046875,9.529950141906738,2.619000196456909,-1.6050000190734863
1766015509784710700,1.755710693359375,9.454050064086914,2.6100001335144043,-1.540950059890747
1766015509794317000,1.765317138671875,9.372000694274902,2.6260502338409424,-1.4470500946044922
1766015509803923700,1.774923828125,9.295950889587402,2.6929500102996826,-1.3920000791549683
1766015509813530400,1.7845302734375,9.178950309753418,2.7870001792907715,-1.3870500326156616
1766015509823136800,1.79413671875,9.070950508117676,2.860950231552124,-1.3780500888824463
1766015509832743400,1.803743408203125,8.985000610351562,2.890050172805786,-1.3470001220703125
1766015509842350000,1.81335009765625,8.922000885009766,2.880000114440918,-1.2529500722885132
1766015509851956500,1.82295654296875,8.869950294494629,2.871000051498413,-1.1839500665664673
1766015509861563100,1.832563232421875,8.836050033569336,2.868000030517578,-1.1809500455856323
1766015509871169800,1.842169677734375,8.752050399780273,2.8440001010894775,-1.2559500932693481
1766015509880776200,1.851776123046875,8.707050323486328,2.8350000381469727,-1.3729500770568848
1766015509890382600,1.861382568359375,8.680950164794922,2.8350000381469727,-1.5210000276565552
1766015509899989200,1.8709892578125,8.731050491333008,2.839050054550171,-1.6200001239776611
1766015509909596000,1.880595947265625,8.806950569152832,2.8470001220703125,-1.6050000190734863
1766015509919202600,1.89020263671875,8.878950119018555,2.791950225830078,-1.5049500465393066
1766015509928809000,1.89980908203125,9.025050163269043,2.7150001525878906,-1.3399500846862793
1766015509938415600,1.90941552734375,9.211950302124023,2.683950185775757,-1.1620500087738037
1766015509948022000,1.91902197265625,9.439949989318848,2.680950164794922,-1.0380001068115234
1766015509957628700,1.928628662109375,9.631050109863281,2.659950017929077,-0.9490500688552856
1766015509967235300,1.9382353515625,9.784050941467285,2.6430001258850098,-0.8890500664710999
1766015509976841700,1.947841796875,9.873000144958496,2.641050100326538,-0.8730000257492065
1766015509986448400,1.957448486328125,9.937950134277344,2.638050079345703,-0.8940000534057617
1766015509996055000,1.967054931640625,9.954000473022461,2.668950080871582,-0.931950032711029
1766015510005661400,1.976661376953125,9.885000228881836,2.703000068664551,-0.9520500302314758
1766015510015268000,1.98626806640625,9.753000259399414,2.7649500370025635,-0.9010500311851501
1766015510024874800,1.995874755859375,9.576000213623047,2.8350000381469727,-0.8340000510215759
1766015510034481200,2.005481201171875,9.459000587463379,2.871000051498413,-0.7939500212669373
1766015510044087800,2.015087890625,9.283950805664062,2.9140501022338867,-0.739050030708313
1766015510053694500,2.024694580078125,9.157050132751465,2.9160001277923584,-0.6690000295639038
1766015510063300900,2.03430078125,9.106950759887695,2.940000057220459,-0.6330000162124634
1766015510072907500,2.043907470703125,9.115950584411621,2.952000141143799,-0.7170000076293945
1766015510082514000,2.053513916015625,9.121050834655762,2.977950096130371,-0.820050060749054
1766015510092120600,2.06312060546875,9.145050048828125,2.9740500450134277,-0.89205002784729
1766015510101727000,2.07272705078125,9.175950050354004,2.992950201034546,-0.9280500411987305
1766015510111333600,2.082333740234375,9.210000038146973,2.9880001544952393,-0.9799500703811646
1766015510120940300,2.091940185546875,9.25005054473877,3.0019500255584717,-1.0140000581741333
1766015510130547000,2.101546875,9.219000816345215,3.000000238418579,-1.045050024986267
1766015510140153300,2.1111533203125,9.178950309753418,2.977950096130371,-1.057050108909607
1766015510149759700,2.120759765625,9.175950050354004,2.9710500240325928,-1.0090500116348267
1766015510159366700,2.13036669921875,9.193050384521484,2.950050115585327,-0.906000018119812
1766015510168973000,2.13997314453125,9.223950386047363,2.9569501876831055,-0.7579500079154968
1766015510178579500,2.149579345703125,9.291000366210938,2.952000141143799,-0.5640000104904175
1766015510188186000,2.15918603515625,9.466050148010254,3.007050037384033,-0.44895002245903015
1766015510197792800,2.168792724609375,9.67905044555664,3.057000160217285,-0.4819500148296356
1766015510207399200,2.178399169921875,9.910950660705566,3.0739500522613525,-0.5250000357627869
1766015510217005800,2.188005859375,10.123950004577637,3.0739500522613525,-0.5490000247955322
1766015510226612500,2.197612548828125,10.303950309753418,3.0810000896453857,-0.597000002861023
1766015510236219000,2.207218994140625,10.41195011138916,3.1050002574920654,-0.6430500149726868
1766015510245825500,2.216825439453125,10.414050102233887,3.1410000324249268,-0.6739500164985657
1766015510255432200,2.22643212890625,10.336950302124023,3.129000186920166,-0.6480000019073486
1766015510265038600,2.23603857421875,10.2610502243042,3.139050245285034,-0.5779500007629395
1766015510274645200,2.245645263671875,10.170000076293945,3.189000129699707,-0.5779500007629395
1766015510284252000,2.255251953125,10.069050788879395,3.2730002403259277,-0.5779500007629395
1766015510293858300,2.2648583984375,9.973050117492676,3.3420002460479736,-0.5400000214576721
1766015510303464700,2.274464599609375,9.922950744628906,3.388050079345703,-0.527999997138977
1766015510313071600,2.284071533203125,9.934950828552246,3.475950241088867,-0.5809500217437744
1766015510322678000,2.293677978515625,9.945000648498535,3.558000087738037,-0.6330000162124634
1766015510332284400,2.303284423828125,9.894000053405762,3.637050151824951,-0.7000500559806824
1766015510341891300,2.312891357421875,9.837000846862793,3.7300500869750977,-0.7939500212669373
1766015510351497700,2.322497802734375,9.72195053100586,3.886050224304199,-0.8749500513076782
1766015510361104100,2.332104248046875,9.514050483703613,4.009950160980225,-0.9400500655174255
1766015510370711000,2.3417109375,9.19005012512207,4.039050102233887,-0.9130500555038452
1766015510380317400,2.3513173828125,8.848050117492676,3.936000108718872,-0.8340000510215759
1766015510389924000,2.360924072265625,8.56095027923584,3.7830002307891846,-0.7050000429153442
1766015510399530800,2.37053076171875,8.428950309753418,3.57705020904541,-0.6190500259399414
1766015510409137200,2.38013720703125,8.407950401306152,3.38100004196167,-0.6190500259399414
1766015510418743800,2.389743896484375,8.530050277709961,3.249000072479248,-0.7000500559806824
1766015510428350200,2.39935009765625,8.707050323486328,3.0840001106262207,-0.8700000643730164
1766015510437956900,2.408956787109375,8.95305061340332,2.902050256729126,-1.0210500955581665
1766015510447563300,2.418563232421875,9.234000205993652,2.6550002098083496,-1.1479500532150269
1766015510457170000,2.428169921875,9.520950317382812,2.3560500144958496,-1.2250500917434692
1766015510466776600,2.437776611328125,9.757950782775879,2.095050096511841,-1.2940500974655151
1766015510476383000,2.447383056640625,10.00200080871582,1.8600001335144043,-1.327950119972229
1766015510485989600,2.45698974609375,10.230000495910645,1.7170500755310059,-1.2889500856399536
1766015510495596300,2.46659619140625,10.41195011138916,1.6350001096725464,-1.1959500312805176
1766015510505203000,2.476202880859375,10.522050857543945,1.585050106048584,-1.0000500679016113
1766015510514809300,2.485809326171875,10.53600025177002,1.5540000200271606,-0.6670500040054321
1766015510524415700,2.495415771484375,10.396950721740723,1.5390000343322754,-0.28095000982284546
1766015510534022700,2.505022705078125,10.170000076293945,1.5150001049041748,0.07695000618696213
1766015510543629000,2.514629150390625,9.916050910949707,1.5180001258850098,0.40005001425743103
1766015510553235500,2.5242353515625,9.672000885009766,1.5559500455856323,0.6199500560760498
1766015510562842000,2.533842041015625,9.454050064086914,1.5919500589370728,0.7810500264167786
1766015510572448800,2.54344873046875,9.16200065612793,1.64205002784729,0.8890500664710999
1766015510582055200,2.55305517578125,8.929950714111328,1.659000039100647,0.9270000457763672
1766015510591661800,2.562661865234375,8.788050651550293,1.6470000743865967,0.8809500336647034
1766015510601268500,2.5722685546875,8.695050239562988,1.603950023651123,0.8119500279426575
1766015510610875000,2.581875,8.653950691223145,1.4959501028060913,0.7260000109672546
1766015510620481500,2.5914814453125,8.721000671386719,1.446000099182129,0.661050021648407
1766015510630088200,2.601088134765625,8.88900089263916,1.429050087928772,0.6280500292778015
1766015510639694600,2.610694580078125,9.130949974060059,1.4770500659942627,0.6799500584602356
1766015510649301000,2.620301025390625,9.337050437927246,1.5319501161575317,0.7570500373840332
1766015510658908000,2.629907958984375,9.529950141906738,1.5750000476837158,0.9720000624656677
1766015510668514300,2.639514404296875,9.688950538635254,1.6230000257492065,1.237950086593628
1766015510678120700,2.64912060546875,9.768000602722168,1.6879501342773438,1.4700000286102295
1766015510687727400,2.658727294921875,9.850950241088867,1.7359501123428345,1.758000135421753
1766015510697334000,2.668333984375,9.930000305175781,1.7280000448226929,1.954050064086914
1766015510706940700,2.677940673828125,10.039950370788574,1.7089500427246094,2.0350501537323
1766015510716547000,2.687547119140625,10.18695068359375,1.7400001287460327,1.9639500379562378
1766015510726153700,2.69715380859375,10.345050811767578,1.7670000791549683,1.7530500888824463
1766015510735760100,2.706760009765625,10.486050605773926,1.8390001058578491,1.4700000286102295
1766015510745367000,2.716366943359375,10.603050231933594,1.8889501094818115,1.1710500717163086
1766015510754973400,2.725973388671875,10.641000747680664,1.9390500783920288,0.9199500679969788
1766015510764579800,2.735579833984375,10.624950408935547,1.963050127029419,0.7519500255584717
1766015510774186800,2.745186767578125,10.527000427246094,1.9729501008987427,0.687000036239624
1766015510783793200,2.754793212890625,10.359000205993652,2.001000165939331,0.7069500088691711
1766015510793399800,2.76439990234375,10.195950508117676,2.083050012588501,0.8410500288009644
1766015510803006200,2.774006103515625,9.985050201416016,2.1570000648498535,0.984000027179718
1766015510812612900,2.78361279296875,9.732000350952148,2.2240500450134277,1.1260499954223633
1766015510822219500,2.793219482421875,9.519000053405762,2.272050142288208,1.2790501117706299
1766015510831826000,2.802825927734375,9.271950721740723,2.3080501556396484,1.4299501180648804
1766015510841432600,2.8124326171875,8.986950874328613,2.382000207901001,1.4440500736236572
1766015510851039200,2.822039306640625,8.748000144958496,2.5189502239227295,1.3120501041412354
1766015510860645600,2.831645751953125,8.506050109863281,2.6670000553131104,1.0470000505447388
1766015510870252300,2.841252197265625,8.233050346374512,2.7769501209259033,0.8809500336647034
1766015510879859000,2.85085888671875,7.912050247192383,2.7460501194000244,0.7620000243186951
1766015510889465300,2.86046533203125,7.540950298309326,2.6650500297546387,0.7020000219345093
1766015510899072000,2.870072021484375,7.210050106048584,2.6670000553131104,0.6109500527381897
1766015510908678700,2.8796787109375,7.087950229644775,2.7840001583099365,0.5490000247955322
1766015510918285000,2.88928515625,7.0600504875183105,2.9710500240325928,0.5290500521659851
1766015510927891500,2.898891357421875,7.16295051574707,3.132000207901001,0.51705002784729
1766015510937498400,2.908498291015625,7.371000289916992,3.2659502029418945,0.5220000147819519
1766015510947104800,2.918104736328125,7.704000473022461,3.369000196456909,0.48900002241134644
1766015510956711200,2.927711181640625,8.12700080871582,3.4330501556396484,0.37905001640319824
1766015510966317800,2.93731787109375,8.568000793457031,3.460050106048584,0.2880000174045563
1766015510975924500,2.946924560546875,8.944050788879395,3.4399502277374268,0.31200000643730164
1766015510985531000,2.95653076171875,9.246000289916992,3.3570001125335693,0.45795002579689026
1766015510995137500,2.966137451171875,9.43695068359375,3.289950132369995,0.6559500098228455
1766015511004744200,2.975744140625,9.580950736999512,3.261000156402588,0.7930500507354736
1766015511014350600,2.9853505859375,9.700050354003906,3.3160500526428223,0.8530500531196594
1766015511023957200,2.994957275390625,9.717000007629395,3.366000175476074,0.8770500421524048
1766015511033564000,3.00456396484375,9.688950538635254,3.397050142288208,0.8929500579833984
1766015511043170300,3.01417041015625,9.69795036315918,3.397050142288208,0.9240000247955322
1766015511052777000,3.02377685546875,9.720000267028809,3.418950080871582,0.9030000567436218
1766015511062383600,3.033383544921875,9.789000511169434,3.507000207901001,0.8190000653266907
1766015511071990300,3.042990234375,9.877950668334961,3.5460002422332764,0.6970500349998474
1766015511081596700,3.0525966796875,9.934950828552246,3.5239500999450684,0.6540000438690186
1766015511091203300,3.062203369140625,9.969000816345215,3.460050106048584,0.62295001745224
1766015511100809700,3.071809814453125,9.95895004272461,3.3139500617980957,0.6420000195503235
1766015511110416400,3.08141650390625,9.910950660705566,3.1870501041412354,0.6349500417709351
1766015511120023000,3.09102294921875,9.874950408935547,3.121950149536133,0.5389500260353088
1766015511129629400,3.10062939453125,9.957000732421875,3.0930001735687256,0.3550500273704529
1766015511139236000,3.110236083984375,10.105050086975098,3.14805006980896,0.13005000352859497
1766015511148842800,3.1198427734375,10.225050926208496,3.2850000858306885,-0.18495000898838043
1766015511158449400,3.129449462890625,10.345050811767578,3.535950183868408,-0.5520000457763672
1766015511168055800,3.139055908203125,10.464000701904297,3.8550002574920654,-0.8269500136375427
1766015511177662500,3.148662353515625,10.464000701904297,4.06095027923584,-0.9540000557899475
1766015511187269000,3.15826904296875,10.342050552368164,4.080000400543213,-0.8419500589370728
1766015511196875500,3.16787548828125,10.084050178527832,3.8310000896453857,-0.3150000274181366
1766015511206482000,3.17748193359375,9.825000762939453,3.370950222015381,0.4620000123977661
1766015511216088600,3.187088623046875,9.621000289916992,2.8849501609802246,1.1929500102996826
1766015511225695200,3.1966953125,9.559050559997559,2.491950035095215,1.5540000200271606
1766015511235301600,3.206301513671875,9.7339506149292,2.241000175476074,1.5040500164031982
1766015511244908300,3.215908203125,10.00200080871582,2.02305006980896,1.114050030708313
1766015511254515000,3.225514892578125,10.29900074005127,1.8049501180648804,0.5509500503540039
1766015511264121300,3.235121337890625,10.629000663757324,1.6140000820159912,-0.12300000339746475
1766015511273728000,3.24472802734375,10.870950698852539,1.4479501247406006,-0.8059500455856323
1766015511283334700,3.254334716796875,10.941000938415527,1.3620001077651978,-1.3780500888824463
1766015511292941000,3.263941162109375,10.882950782775879,1.3050000667572021,-1.8109500408172607
1766015511302547700,3.273547607421875,10.717950820922852,1.350000023841858,-2.0719501972198486
1766015511312154400,3.283154296875,10.480950355529785,1.4560500383377075,-2.1060001850128174
1766015511321760800,3.2927607421875,10.153050422668457,1.5390000343322754,-1.957050085067749
1766015511331367200,3.3023671875,9.95205020904541,1.6210501194000244,-1.7299500703811646
1766015511340974000,3.31197412109375,9.72705078125,1.7500500679016113,-1.4740500450134277
1766015511350580500,3.32158056640625,9.553950309753418,1.9369500875473022,-1.2370500564575195
1766015511360187000,3.331186767578125,9.38895034790039,2.11395001411438,-1.0140000581741333
1766015511369793800,3.340793701171875,9.111000061035156,2.2240500450134277,-0.8440500497817993
1766015511379400200,3.350400146484375,8.830950736999512,2.3560500144958496,-0.6910500526428223
1766015511389006800,3.3600068359375,8.544000625610352,2.4970500469207764,-0.6000000238418579
1766015511398613200,3.36961328125,8.259000778198242,2.5260000228881836,-0.46800002455711365
1766015511408220000,3.379219970703125,7.9960503578186035,2.3680500984191895,-0.11100000888109207
1766015511417826600,3.38882666015625,7.786950588226318,2.02305006980896,0.42900002002716064
1766015511427433200,3.39843310546875,7.773000240325928,1.683000087738037,0.831000030040741
1766015511437039600,3.40803955078125,8.056050300598145,1.5349500179290771,0.8650500178337097
1766015511446646300,3.417646240234375,8.64900016784668,1.4910000562667847,0.703950047492981
1766015511456252700,3.427252685546875,9.343950271606445,1.4410500526428223,0.4620000123977661
1766015511465859600,3.436859619140625,10.16295051574707,1.276050090789795,0.15405000746250153
1766015511475465700,3.4464658203125,10.893000602722168,1.0720500946044922,-0.2639999985694885
1766015511485072400,3.456072265625,11.439000129699707,0.9529500603675842,-0.8650500178337097
1766015511494679000,3.465678955078125,11.692950248718262,0.9619500637054443,-1.5169501304626465
1766015511504285700,3.47528564453125,11.785950660705566,1.0530000925064087,-2.0080502033233643
1766015511513892000,3.48489208984375,11.725950241088867,1.221000075340271,-2.1660001277923584
1766015511523498800,3.494498779296875,11.482050895690918,1.4680501222610474,-2.0310001373291016
1766015511533105400,3.50410546875,11.130000114440918,1.7310000658035278,-1.7320500612258911
1766015511542711800,3.5137119140625,10.720050811767578,1.9750500917434692,-1.3320000171661377
1766015511552318200,3.523318115234375,10.27500057220459,2.2099502086639404,-0.8700000643730164
1766015511561924900,3.5329248046875,9.865950584411621,2.449050188064575,-0.3720000088214874
1766015511571531500,3.542531494140625,9.41295051574707,2.6479501724243164,0.07005000114440918
1766015511581138000,3.552137939453125,8.937000274658203,2.808000087738037,0.3469500243663788
1766015511590744600,3.56174462890625,8.470050811767578,2.959050178527832,0.4549500346183777
1766015511600351200,3.571351318359375,8.059950828552246,3.091050148010254,0.3550500273704529
1766015511609957600,3.58095751953125,7.717950344085693,3.223050117492676,0.12000000476837158
1766015511619564300,3.590564208984375,7.548000335693359,3.3829500675201416,-0.1469999998807907
1766015511629171000,3.6001708984375,7.498050212860107,3.535950183868408,-0.3910500109195709
1766015511638777300,3.60977734375,7.615050315856934,3.6250500679016113,-0.5659500360488892
1766015511648384000,3.619384033203125,7.881000518798828,3.642000198364258,-0.6280500292778015
1766015511657990700,3.62899072265625,8.272950172424316,3.5839502811431885,-0.6379500031471252
1766015511667597000,3.63859716796875,8.6850004196167,3.5119502544403076,-0.5809500217437744
1766015511677203500,3.648203369140625,9.10004997253418,3.457050085067749,-0.556950032711029
1766015511686810400,3.657810302734375,9.478050231933594,3.397050142288208,-0.5730000138282776
1766015511696416800,3.667416748046875,9.745950698852539,3.3450002670288086,-0.6280500292778015
1766015511706023200,3.677023193359375,9.94005012512207,3.309000253677368,-0.6859500408172607
1766015511715630000,3.686630126953125,10.087950706481934,3.330000162124634,-0.7270500063896179
1766015511725236500,3.696236572265625,10.165050506591797,3.3570001125335693,-0.7309500575065613
1766015511734843100,3.705843017578125,10.146000862121582,3.3760502338409424,-0.6570000052452087
1766015511744449500,3.715449462890625,10.102950096130371,3.418950080871582,-0.5329500436782837
1766015511754056200,3.72505615234375,10.027950286865234,3.5149502754211426,-0.4420500099658966
1766015511763662800,3.734662841796875,9.910950660705566,3.630000114440918,-0.46800002455711365
1766015511773269200,3.744269287109375,9.789000511169434,3.7159502506256104,-0.48705002665519714
1766015511782876000,3.7538759765625,9.640950202941895,3.7759501934051514,-0.4420500099658966
1766015511792482300,3.763482421875,9.484950065612793,3.835050106048584,-0.4819500148296356
1766015511802089000,3.7730888671875,9.313050270080566,3.9049501419067383,-0.5659500360488892
1766015511811695600,3.782695556640625,9.171000480651855,4.005000114440918,-0.6450000405311584
1766015511821302000,3.792302001953125,9.018000602722168,4.077000141143799,-0.7240500450134277
1766015511830908700,3.80190869140625,8.922000885009766,4.065000057220459,-0.7459500432014465
1766015511840515300,3.811515380859375,8.902950286865234,4.087049961090088,-0.8080500364303589
1766015511850122000,3.8211220703125,8.97705078125,4.228050231933594,-1.0000500679016113
1766015511859728400,3.830728271484375,9.15000057220459,4.393050193786621,-1.1839500665664673
1766015511878941700,3.849941650390625,9.175950050354004,4.314000129699707,-0.9469500184059143
1766015511888548000,3.859548095703125,8.98905086517334,4.02495002746582,-0.5250000357627869
1766015511898154800,3.86915478515625,8.760000228881836,3.6820502281188965,-0.08700000494718552
1766015511907761200,3.87876123046875,8.545949935913086,3.460050106048584,0.2659500241279602
1766015511917367800,3.888367919921875,8.451000213623047,3.390000104904175,0.5370000004768372
1766015511926974500,3.897974365234375,8.56095027923584,3.4549500942230225,0.6199500560760498
1766015511936580900,3.907580810546875,8.785950660705566,3.52905011177063,0.5770500302314758
1766015511946187500,3.9171875,9.097050666809082,3.570000171661377,0.5560500025749207
1766015511955794200,3.926794189453125,9.466050148010254,3.460050106048584,0.6040500402450562
1766015511965400600,3.936400634765625,9.847050666809082,3.2659502029418945,0.6640500426292419
1766015511975007200,3.94600732421875,10.183950424194336,3.0930001735687256,0.703950047492981
1766015511984614000,3.95561376953125,10.41195011138916,2.950050115585327,0.6919500231742859
1766015511994220300,3.96522021484375,10.617000579833984,2.791950225830078,0.673050045967102
1766015512003827000,3.974826904296875,10.783050537109375,2.641050100326538,0.6679500341415405
1766015512013433300,3.984433349609375,10.765950202941895,2.491950035095215,0.6199500560760498
1766015512023040000,3.9940400390625,10.558050155639648,2.3680500984191895,0.661050021648407
1766015512032646700,4.003646728515625,10.165050506591797,2.2960500717163086,0.6660000085830688
1766015512042253000,4.013253173828125,9.72195053100586,2.3170502185821533,0.5959500074386597
1766015512051859700,4.022859619140625,9.358050346374512,2.40405011177063,0.5560500025749207
1766015512061466400,4.03246630859375,9.004050254821777,2.54295015335083,0.6280500292778015
1766015512071072800,4.04207275390625,8.617950439453125,2.6620500087738037,0.843000054359436
1766015512080679400,4.051679443359375,8.259000778198242,2.7340500354766846,1.0969500541687012
1766015512090286000,4.0612861328125,7.948050498962402,2.782050132751465,1.284000039100647
1766015512099892500,4.070892578125,7.73205041885376,2.8540501594543457,1.3699500560760498
1766015512109499100,4.0804990234375,7.651050567626953,2.9710500240325928,1.284000039100647
1766015512119105800,4.090105712890625,7.668000221252441,3.121950149536133,1.0390501022338867
1766015512128712200,4.099712158203125,7.72005033493042,3.241950035095215,0.7020000219345093
1766015512138318600,4.109318603515625,7.81095027923584,3.258000135421753,0.4120500087738037
1766015512147925500,4.118925537109375,7.9960503578186035,3.2340002059936523,0.20100000500679016
1766015512157532000,4.128531982421875,8.278050422668457,3.1960501670837402,0.05100000277161598
1766015512167138300,4.13813818359375,8.563050270080566,3.1909501552581787,-0.0010500000789761543
1766015512176745000,4.147744873046875,8.809950828552246,3.238950252532959,0.04605000093579292
1766015512186351600,4.1573515625,9.031949996948242,3.2970001697540283,0.18195000290870667
1766015512195958000,4.1669580078125,9.222000122070312,3.370950222015381,0.3160500228404999
1766015512205564700,4.176564697265625,9.310050010681152,3.4549500942230225,0.4339500069618225
1766015512215171300,4.18617138671875,9.258000373840332,3.478950262069702,0.534000039100647
1766015512224777700,4.19577783203125,9.123000144958496,3.475950241088867,0.5490000247955322
1766015512234384400,4.20538427734375,8.961000442504883,3.5050501823425293,0.5460000038146973
1766015512243991000,4.214990966796875,8.776050567626953,3.538950204849243,0.4939500093460083
1766015512253597400,4.224597412109375,8.587050437927246,3.574050188064575,0.4030500054359436
1766015512263204000,4.2342041015625,8.511000633239746,3.649050235748291,0.2370000183582306
1766015512272810800,4.243810791015625,8.43600082397461,3.676950216293335,0.09405000507831573
1766015512282417200,4.253417236328125,8.347949981689453,3.66795015335083,0.039000000804662704
1766015512292023800,4.26302392578125,8.221050262451172,3.6439502239227295,-0.010950000956654549
1766015512301630500,4.27263037109375,8.221050262451172,3.634050130844116,0.010050000622868538
1766015512311236900,4.28223681640625,8.314050674438477,3.6820502281188965,0.1579500138759613
1766015512320843500,4.291843505859375,8.428950309753418,3.7300500869750977,0.38805001974105835
1766015512330450000,4.301449951171875,8.539050102233887,3.808950185775757,0.6439500451087952
1766015512340056600,4.311056640625,8.665950775146484,3.886050224304199,0.843000054359436
1766015512349663000,4.3206630859375,8.743050575256348,3.9460501670837402,0.9150000214576721
1766015512359269600,4.33026953125,8.80305004119873,4.019999980926514,0.8410500288009644
1766015512368876300,4.339876220703125,8.85300064086914,4.104000091552734,0.6439500451087952
1766015512378482700,4.349482666015625,8.920050621032715,4.185000419616699,0.43800002336502075
1766015512388089300,4.35908935546875,8.970000267028809,4.174950122833252,0.36705002188682556
1766015512397696000,4.368696044921875,9.037050247192383,4.162950038909912,0.37605002522468567
1766015512407302400,4.378302490234375,9.15195083618164,4.147050380706787,0.4120500087738037
1766015512416908800,4.38790869140625,9.304950714111328,4.072050094604492,0.4819500148296356
1766015512426515700,4.397515625,9.456000328063965,4.027050018310547,0.5389500260353088
1766015512436122000,4.4071220703125,9.586050033569336,3.9930002689361572,0.5320500135421753
1766015512445728800,4.416728759765625,9.69105052947998,4.000950336456299,0.6079500317573547
1766015512455335200,4.426335205078125,9.741000175476074,3.9979500770568848,0.6199500560760498
1766015512464941800,4.43594189453125,9.775050163269043,4.152000427246094,0.47895002365112305
1766015512474548200,4.44554833984375,9.865950584411621,4.503000259399414,0.16095000505447388
1766015512484155000,4.45515478515625,9.945000648498535,4.992000102996826,-0.27900001406669617
1766015512493761500,4.464761474609375,9.918000221252441,5.257950305938721,-0.45795002579689026
1766015512503368200,4.4743681640625,9.72705078125,5.302950382232666,-0.24105000495910645
1766015512512974600,4.483974609375,9.375,5.119050025939941,0.24705001711845398
1766015512522581200,4.493581298828125,9.193050384521484,4.956000328063965,0.817050039768219
1766015512532187600,4.503187744140625,9.564000129699707,4.843050003051758,1.3150500059127808
1766015512541794300,4.512794189453125,9.96405029296875,4.5199503898620605,1.5589500665664673
1766015512551400700,4.522400634765625,10.483050346374512,4.017000198364258,1.6260000467300415
1766015512561007400,4.53200732421875,11.058000564575195,3.550950050354004,1.4010000228881836
1766015512570614000,4.541614013671875,11.499000549316406,3.238950252532959,0.831000030040741
1766015512580220400,4.551220458984375,11.503050804138184,2.9850001335144043,0.11505000293254852
1766015512589827000,4.5608271484375,11.197050094604492,2.7460501194000244,-0.45795002579689026
1766015512599433700,4.570433837890625,10.701000213623047,2.559000015258789,-0.8179500102996826
1766015512609040100,4.5800400390625,10.297050476074219,2.5570502281188965,-0.9880500435829163
1766015512618646800,4.589646728515625,10.153050422668457,2.848950147628784,-0.9370500445365906
1766015512628253400,4.59925341796875,10.063950538635254,3.3420002460479736,-0.17595000565052032
1766015512637859800,4.60885986328125,9.696000099182129,3.5220000743865967,0.5730000138282776
1766015512647466500,4.618466552734375,10.030950546264648,3.1840500831604004,-0.21405000984668732
1766015512657073000,4.628072998046875,10.24905014038086,2.571000099182129,-3.4110002517700195
1766015512666679600,4.637679443359375,9.564000129699707,3.211050033569336,-2.6950502395629883
1766015512676286000,4.647285888671875,7.777950286865234,3.5910000801086426,-0.3820500075817108
1766015512685892600,4.656892578125,7.488000392913818,3.517050266265869,1.237950086593628
1766015512695499300,4.666499267578125,9.065999984741211,3.369000196456909,1.801050066947937
1766015512705105700,4.676105712890625,9.541950225830078,2.839050054550171,1.8199501037597656
1766015512714712300,4.68571240234375,8.725950241088867,2.6020500659942627,1.6669501066207886
1766015512724319000,4.695319091796875,7.69605016708374,2.899050235748291,1.1779500246047974
1766015512733925400,4.70492529296875,8.020050048828125,3.6529502868652344,0.505050003528595
1766015512743532000,4.714531982421875,8.79104995727539,4.105950355529785,-0.08700000494718552
1766015512753138700,4.724138671875,9.550050735473633,3.9930002689361572,-0.697950005531311
1766015512762745000,4.7337451171875,9.70305061340332,3.3490500450134277,-1.1119500398635864
1766015512772351500,4.7433515625,8.500950813293457,2.4780001640319824,-0.9109500646591187
1766015512781958400,4.75295849609375,5.029050350189209,1.8049501180648804,0.5920500159263611
1766015512791564800,4.762564697265625,6.592950344085693,1.221000075340271,0.003000000026077032
1766015512801171200,4.772171142578125,6.199950218200684,1.5390000343322754,-0.3079500198364258
1766015512810777900,4.78177783203125,5.901000499725342,2.533050060272217,-0.3360000252723694
1766015512820384500,4.791384521484375,5.187000274658203,3.2970001697540283,0.08595000207424164
1766015512829991000,4.800990966796875,4.087950229644775,3.4480502605438232,0.8070000410079956
1766015512839597300,4.810597412109375,3.3319501876831055,3.2850000858306885,1.2169500589370728
1766015512849204200,4.820204345703125,2.647050142288208,3.1050002574920654,0.8689500689506531
1766015512858810600,4.829810546875,3.0990002155303955,2.9059500694274902,-0.22905001044273376
1766015512868417000,4.8394169921875,7.648950576782227,3.6150002479553223,-3.481950283050537
1766015512878023700,4.849023681640625,10.096050262451172,3.996000289916992,-7.119000434875488
1766015512887630300,4.85863037109375,10.53795051574707,3.199050188064575,-8.745000839233398
1766015512897236700,4.86823681640625,10.735050201416016,1.6609500646591187,-7.672050476074219
1766015512906843400,4.877843505859375,11.806950569152832,0.05700000375509262,-5.509950160980225
1766015512916450000,4.887449951171875,13.660950660705566,-0.5020500421524048,-4.04295015335083
1766015512926056400,4.897056396484375,15.588000297546387,-0.5040000081062317,-2.983950138092041
1766015512935662800,4.906662841796875,16.81395149230957,-0.6769500374794006,-2.6299500465393066
1766015512945269800,4.916269775390625,15.969000816345215,-0.3820500075817108,-3.793950080871582
1766015512954876200,4.925876220703125,14.503050804138184,-0.25995001196861267,-5.212950229644775
1766015512964482800,4.93548291015625,11.701951026916504,-0.6150000095367432,-5.569950103759766
1766015512974089200,4.945089111328125,8.788050651550293,-1.3060500621795654,-5.794950485229492
1766015512983696000,4.95469580078125,6.6409502029418945,-2.1660001277923584,-6.87000036239624
1766015512993302300,4.96430224609375,5.64900016784668,-2.4220499992370605,-7.312950134277344
1766015513002909000,4.973908935546875,5.647050380706787,-1.9390500783920288,-5.671050071716309
1766015513012515600,4.983515625,5.929050445556641,-1.4050500392913818,-2.8380000591278076
1766015513022122000,4.9931220703125,5.902950286865234,-1.503000020980835,-0.23595000803470612
1766015513031728400,5.002728271484375,5.599050045013428,-1.951050043106079,1.810050129890442
1766015513041335300,5.012335205078125,5.3359503746032715,-2.2260000705718994,3.5059502124786377
1766015513050941700,5.021941650390625,5.452950477600098,-2.307000160217285,5.2819504737854
1766015513060548000,5.031548095703125,5.719050407409668,-1.8480000495910645,7.627950191497803
1766015513070154800,5.04115478515625,6.307950496673584,-0.598050057888031,10.825050354003906
1766015513079761400,5.050761474609375,6.8580002784729,0.5719500184059143,14.161951065063477
1766015513089367800,5.060367919921875,8.038949966430664,1.3960500955581665,18.016950607299805
1766015513098974500,5.069974365234375,9.619050025939941,2.410950183868408,21.57000160217285
1766015513108581000,5.0795810546875,10.82805061340332,3.7039501667022705,23.96700096130371
1766015513118187500,5.0891875,11.178000450134277,4.909950256347656,24.853050231933594
1766015513127794200,5.098794189453125,10.885950088500977,5.926050186157227,24.190052032470703
1766015513137400800,5.10840087890625,9.862950325012207,6.579000473022461,22.047000885009766
1766015513147007200,5.11800732421875,8.215950012207031,6.618000507354736,19.815000534057617
1766015513156613600,5.127613525390625,6.394050121307373,6.0769500732421875,18.103050231933594
1766015513166220300,5.13722021484375,4.2870001792907715,5.511000156402588,16.708051681518555
1766015513175827000,5.146826904296875,1.7419500350952148,4.82895040512085,15.396000862121582
1766015513185433600,5.15643359375,-0.5959500074386597,4.096050262451172,13.708050727844238
1766015513195040300,5.166040283203125,-2.1450002193450928,3.5839502811431885,11.359050750732422
1766015513204646700,5.175646728515625,-2.464050054550171,3.3730502128601074,8.425950050354004
1766015513214253000,5.185253173828125,-1.912950038909912,3.409050226211548,5.94795036315918
1766015513223859700,5.194859619140625,-1.2360000610351562,3.2700002193450928,4.446000099182129
1766015513233466400,5.20446630859375,-0.6799500584602356,2.8560001850128174,3.472050189971924
1766015513243072800,5.21407275390625,-0.11505000293254852,2.659950017929077,2.7229502201080322
1766015513252679400,5.223679443359375,0.5140500068664551,2.6959500312805176,2.3179500102996826
1766015513262286000,5.2332861328125,1.0930500030517578,2.3770501613616943,2.7900002002716064
1766015513271892500,5.242892578125,1.0260000228881836,2.422950029373169,2.8350000381469727
1766015513281499000,5.252498779296875,0.6520500183105469,2.5189502239227295,3.1080000400543213
1766015513291105800,5.262105712890625,0.11595000326633453,2.136000156402588,4.528050422668457
1766015513300712200,5.271712158203125,-0.6949500441551208,0.9739500284194946,6.252000331878662
1766015513310318600,5.281318603515625,-1.3819500207901,-0.7320000529289246,7.068000316619873
1766015513319925500,5.290925537109375,-1.5370501279830933,-2.884050130844116,6.7669501304626465
1766015513329532000,5.300531982421875,-0.703950047492981,-4.7659502029418945,6.313950061798096
1766015513339138300,5.31013818359375,1.0909500122070312,-5.937000274658203,6.046050071716309
1766015513348745000,5.319744873046875,4.900050163269043,-6.5400004386901855,6.3259501457214355
1766015513358351600,5.3293515625,10.336950302124023,-6.31095027923584,7.078050136566162
1766015513367958000,5.3389580078125,15.514050483703613,-5.566050052642822,8.622000694274902
1766015513377564700,5.348564697265625,19.05000114440918,-4.789950370788574,10.260000228881836
1766015513387171300,5.35817138671875,22.40205192565918,-5.278950214385986,12.81195068359375
1766015513396777700,5.36777783203125,25.63395118713379,-6.03795051574707,15.384000778198242
1766015513406384000,5.377384033203125,28.303951263427734,-6.2749505043029785,16.477951049804688
1766015513415991000,5.386990966796875,28.81395149230957,-5.700000286102295,15.658950805664062
1766015513425597400,5.396597412109375,26.24700164794922,-4.833000183105469,12.807000160217285
1766015513435204000,5.4062041015625,21.496950149536133,-3.753000259399414,9.098999977111816
1766015513444810500,5.415810546875,16.57200050354004,-2.947050094604492,6.898050308227539
1766015513454417200,5.425417236328125,12.696001052856445,-2.0220000743865967,6.088950157165527
1766015513464023600,5.4350234375,10.51200008392334,-0.6769500374794006,5.779950141906738
1766015513473630200,5.444630126953125,9.471000671386719,0.6030000448226929,5.967000484466553
1766015513483236900,5.45423681640625,9.25005054473877,1.5180001258850098,6.160950183868408
1766015513492843300,5.46384326171875,9.44895076751709,2.233950138092041,5.758950233459473
1766015513502450000,5.473449951171875,9.334050178527832,2.638050079345703,4.648050308227539
1766015513512056600,5.483056640625,9.10004997253418,2.9569501876831055,3.1459500789642334
1766015513521663000,5.4926630859375,9.055950164794922,3.289950132369995,2.442000150680542
1766015513531269600,5.50226953125,9.270000457763672,3.3450002670288086,2.263050079345703
1766015513540876300,5.511876220703125,9.235950469970703,3.061950206756592,1.6930500268936157
1766015513550482700,5.521482666015625,8.3860502243042,2.770050048828125,0.534000039100647
1766015513560089300,5.53108935546875,6.892050266265869,2.4780001640319824,-0.8419500589370728
1766015513569695700,5.54069580078125,5.20395040512085,2.0710501670837402,-1.9000500440597534
1766015513579302400,5.550302490234375,3.564000129699707,1.5109500885009766,-2.0749499797821045
1766015513588908800,5.55990869140625,1.902000069618225,1.1680500507354736,-1.2030000686645508
1766015513598515500,5.569515380859375,0.46605002880096436,0.8380500674247742,0.39795002341270447
1766015513608122000,5.5791220703125,-0.036000002175569534,0.5500500202178955,2.3419501781463623
1766015513617728500,5.588728515625,0.16905000805854797,0.37605002522468567,3.8530502319335938
1766015513627335200,5.598335205078125,0.6550500392913818,-0.20295001566410065,5.164950370788574
1766015513636941600,5.607941650390625,1.048050045967102,-0.9739500284194946,6.382950305938721
1766015513646548200,5.61754833984375,1.0330500602722168,-1.5390000343322754,8.074049949645996
1766015513656155000,5.62715478515625,-0.40005001425743103,-2.3650500774383545,11.260950088500977
1766015513665761300,5.63676123046875,-2.0329501628875732,-2.2950000762939453,14.919000625610352
1766015513675368000,5.646367919921875,-2.1910500526428223,-1.2130500078201294,18.79305076599121
1766015513684974300,5.655974365234375,-0.4909500181674957,0.0880500078201294,22.73400115966797
1766015513694581000,5.6655810546875,1.2820500135421753,1.6900501251220703,26.136001586914062
1766015513704187600,5.675187744140625,2.050950050354004,3.3040502071380615,28.768051147460938
1766015513713794000,5.6847939453125,2.1850500106811523,4.24500036239624,30.31905174255371
1766015513723400700,5.694400634765625,1.894950032234192,4.342950344085693,30.468002319335938
1766015513733007400,5.70400732421875,1.1359500885009766,4.051050186157227,28.97100067138672
1766015513742613800,5.71361376953125,-0.11295000463724136,3.985950231552124,25.983001708984375
1766015513752220400,5.723220458984375,-1.4940000772476196,4.186950206756592,22.023000717163086
1766015513761826800,5.732826904296875,-2.6359500885009766,4.546950340270996,18.160951614379883
1766015513771433500,5.74243359375,-3.868950128555298,4.650000095367432,15.30000114440918
1766015513781040000,5.7520400390625,-5.265000343322754,4.815000057220459,12.955950736999512
1766015513790646500,5.761646484375,-6.433950424194336,5.503950119018555,11.397000312805176
1766015513800253200,5.771253173828125,-7.255050182342529,6.225000381469727,10.423050880432129
1766015513809859600,5.780859619140625,-7.342950344085693,6.369000434875488,9.633000373840332
1766015513819466200,5.79046630859375,-6.856950283050537,5.983050346374512,8.659950256347656
1766015513829073000,5.800072998046875,-6.121950149536133,4.978050231933594,7.128000259399414
1766015513838679300,5.80967919921875,-5.6509504318237305,3.5530502796173096,4.88700008392334
1766015513848286000,5.819285888671875,-5.217000484466553,1.981950044631958,2.2870500087738037
1766015513857892600,5.828892578125,-4.42995023727417,0.6510000228881836,-0.08505000174045563
1766015513867499000,5.8384990234375,-3.2659502029418945,-0.1860000044107437,-2.1130499839782715
1766015513877105700,5.848105712890625,-1.971000075340271,-0.3750000298023224,-3.5400002002716064
1766015513886712000,5.857712158203125,-0.5940000414848328,-0.04005000367760658,-4.147950172424316
1766015513896318700,5.867318603515625,1.240950107574463,0.48600003123283386,-3.4230000972747803
1766015513905925400,5.87692529296875,2.86995005607605,1.2280501127243042,-1.0950000286102295
1766015513915531800,5.88653173828125,3.4830002784729004,1.4359500408172607,1.8630000352859497
1766015513925138400,5.896138427734375,3.126000165939331,0.7399500608444214,3.4360501766204834
1766015513934745000,5.9057451171875,2.115000009536743,0.009000000543892384,3.642000198364258
1766015513944351500,5.9153515625,0.6790500283241272,-0.6240000128746033,3.7740001678466797
1766015513953958100,5.924958251953125,0.21900001168251038,-1.9309500455856323,4.02495002746582
1766015513963564800,5.934564697265625,2.2609500885009766,-3.394050121307373,4.5610504150390625
1766015513973171200,5.944171142578125,6.588000297546387,-4.35705041885376,5.794050216674805
1766015513982777900,5.95377783203125,11.985000610351562,-4.720950126647949,8.289000511169434
1766015513992384300,5.96338427734375,17.295000076293945,-5.125050067901611,11.392050743103027
1766015514001991000,5.972990966796875,22.4809513092041,-5.700000286102295,13.600050926208496
1766015514011597600,5.98259765625,26.767051696777344,-5.2759504318237305,14.656050682067871
1766015514021204200,5.992204345703125,28.87200164794922,-4.78095006942749,16.231050491333008
1766015514030810600,6.001810546875,29.044052124023438,-5.158950328826904,18.409950256347656
1766015514040417000,6.0114169921875,27.691051483154297,-5.779050350189209,18.881999969482422
1766015514050023700,6.021023681640625,25.101001739501953,-5.599050045013428,17.163000106811523
1766015514059630300,6.03063037109375,21.29595184326172,-4.359000205993652,13.426950454711914
1766015514069236700,6.04023681640625,17.5030517578125,-2.977950096130371,10.6360502243042
1766015514078843400,6.049843505859375,15.247950553894043,-1.7370001077651978,9.268950462341309
1766015514088449800,6.05944970703125,13.90005111694336,-0.5760000348091125,7.807950496673584
1766015514098056400,6.069056396484375,12.535050392150879,0.39705002307891846,5.955000400543213
1766015514107663000,6.0786630859375,11.86305046081543,1.1490000486373901,4.894050121307373
1766015514117269800,6.088269775390625,11.917950630187988,1.8390001058578491,4.23105001449585
1766015514126876200,6.097876220703125,11.944050788879395,2.344050168991089,3.1579501628875732
1766015514136482600,6.107482666015625,11.476950645446777,2.6479501724243164,1.67205011844635
1766015514146089500,6.11708935546875,10.222050666809082,2.6770501136779785,-0.00795000046491623
1766015514155695900,6.12669580078125,8.769000053405762,2.599950075149536,-1.2769500017166138
1766015514165302300,6.13630224609375,7.957050323486328,2.491950035095215,-2.0410501956939697
1766015514174909000,6.145908935546875,7.4239501953125,2.111999988555908,-3.115950107574463
1766015514184515600,6.155515625,7.050000190734863,1.4359500408172607,-4.279950141906738
1766015514194122000,6.1651220703125,7.087950229644775,0.6510000228881836,-5.08905029296875
1766015514203728400,6.174728271484375,7.297050476074219,-0.2460000067949295,-5.143950462341309
1766015514213335300,6.184335205078125,7.627050399780273,-1.5750000476837158,-4.443000316619873
1766015514222941700,6.193941650390625,8.029050827026367,-3.3199501037597656,-3.90405011177063
1766015514232548000,6.203548095703125,8.07705020904541,-5.379000186920166,-3.352950096130371
1766015514242155000,6.213155029296875,6.961050510406494,-7.330050468444824,-2.107950210571289
1766015514251761400,6.222761474609375,3.8680500984191895,-9.375,0.15600000321865082
1766015514261367800,6.232367919921875,0.26205000281333923,-10.927050590515137,3.211050033569336
1766015514270974700,6.241974609375,-2.4469501972198486,-11.191950798034668,8.315999984741211
1766015514280581000,6.2515810546875,-3.4459502696990967,-10.009950637817383,15.202051162719727
1766015514290187500,6.2611875,-2.2480502128601074,-7.483950138092041,23.215051651000977
1766015514299794400,6.27079443359375,0.3360000252723694,-4.555950164794922,30.74100112915039
1766015514309400800,6.28040087890625,3.013050079345703,-2.439000129699707,35.515052795410156
1766015514319007200,6.29000732421875,4.651050090789795,-1.612950086593628,38.07705307006836
1766015514328614000,6.29961376953125,4.1670002937316895,-1.7280000448226929,39.508052825927734
1766015514338220500,6.309220458984375,0.12300000339746475,-2.1760501861572266,38.98200225830078
1766015514347827000,6.318826904296875,-5.208000183105469,-2.3430001735687256,36.28995132446289
1766015514357433300,6.328433349609375,-10.37505054473877,-1.5289500951766968,32.83304977416992
1766015514367040300,6.338040283203125,-14.533050537109375,-0.21705001592636108,28.588050842285156
1766015514376646700,6.347646728515625,-17.01405143737793,0.8740500211715698,24.136951446533203
1766015514386253000,6.357253173828125,-18.082050323486328,0.6180000305175781,21.352951049804688
1766015514395859700,6.366859619140625,-17.814001083374023,0.013950000517070293,19.882051467895508
1766015514405466400,6.37646630859375,-15.667950630187988,0.2659500241279602,17.625
1766015514415072800,6.38607275390625,-12.709050178527832,0.8640000224113464,15.577950477600098
1766015514424679700,6.3956796875,-10.434000968933105,1.1080501079559326,14.586000442504883
1766015514434286000,6.4052861328125,-9.289950370788574,1.2660000324249268,13.794000625610352
1766015514443892500,6.414892578125,-8.9839506149292,1.64205002784729,13.144950866699219
1766015514453499100,6.4244990234375,-9.892950057983398,1.6230000257492065,11.78700065612793
1766015514463105800,6.434105712890625,-11.347050666809082,1.1749500036239624,9.388050079345703
1766015514472712200,6.443712158203125,-12.297000885009766,0.4930500090122223,6.883950233459473
1766015514482318800,6.45331884765625,-12.288000106811523,-0.3540000021457672,4.333950042724609
1766015514491925500,6.462925537109375,-10.89900016784668,-0.9760500192642212,2.143050193786621
1766015514501532000,6.472531982421875,-8.854050636291504,-1.2780001163482666,0.7980000376701355
1766015514511138300,6.48213818359375,-6.196950435638428,-1.5319501161575317,0.2970000207424164
1766015514520745200,6.4917451171875,-3.639000177383423,-1.6459500789642334,0.46695002913475037
1766015514530351600,6.5013515625,-2.241000175476074,-1.7830500602722168,0.8410500288009644
1766015514539958000,6.5109580078125,-1.3860000371932983,-2.0629501342773438,1.4610000848770142
1766015514549565000,6.52056494140625,-0.8790000677108765,-2.640000104904175,2.3869500160217285
1766015514559171300,6.53017138671875,-1.0579500198364258,-4.171950340270996,2.8279502391815186
1766015514568777700,6.53977783203125,-1.3240500688552856,-6.655050277709961,1.6330500841140747
1766015514578384400,6.54938427734375,-1.1710500717163086,-8.10105037689209,-0.4320000112056732
1766015514587991000,6.558990966796875,-0.16995000839233398,-8.329050064086914,-0.8869500160217285
1766015514597597400,6.568597412109375,1.990950107574463,-8.230950355529785,1.0080000162124634
1766015514607204000,6.5782041015625,3.8110501766204834,-8.094000816345215,4.344000339508057
1766015514616810800,6.587810791015625,4.171950340270996,-8.652000427246094,8.653050422668457
1766015514626417200,6.597417236328125,4.107000350952148,-9.349050521850586,12.633000373840332
1766015514636023600,6.6070234375,4.201050281524658,-9.70305061340332,14.926051139831543
1766015514645630200,6.616630126953125,3.9970502853393555,-11.053950309753418,14.862000465393066
1766015514655236900,6.62623681640625,4.330049991607666,-12.84000015258789,12.850050926208496
1766015514664843300,6.63584326171875,7.324950218200684,-13.873950958251953,11.004000663757324
1766015514674449700,6.64544970703125,17.221050262451172,-13.957950592041016,9.802950859069824
1766015514684056600,6.655056640625,31.275001525878906,-12.847050666809082,8.509950637817383
1766015514693663000,6.6646630859375,43.94805145263672,-10.570050239562988,5.881050109863281
1766015514703269600,6.67426953125,47.9010009765625,-9.03795051574707,3.0240001678466797
1766015514712876000,6.6838759765625,42.56205368041992,-9.916050910949707,2.1910500526428223
1766015514722482700,6.693482666015625,33.79905319213867,-10.639050483703613,1.7430000305175781
1766015514732089000,6.703089111328125,27.66495132446289,-10.567950248718262,1.0609500408172607
1766015514741695700,6.71269580078125,26.68800163269043,-9.793950080871582,0.30705001950263977
1766015514751302400,6.722302490234375,29.69805145263672,-9.220050811767578,0.8860500454902649
1766015514760908800,6.73190869140625,32.06100082397461,-9.319950103759766,2.5570502281188965
1766015514770515500,6.741515380859375,29.980051040649414,-9.87600040435791,5.48805046081543
1766015514780121900,6.751121826171875,24.966001510620117,-10.504950523376465,9.337950706481934
1766015514789728500,6.760728515625,19.627050399780273,-10.990950584411621,12.793050765991211
1766015514799335200,6.770335205078125,14.941950798034668,-10.801950454711914,15.726000785827637
1766015514808941600,6.779941650390625,11.1510009765625,-9.868050575256348,17.3470516204834
1766015514818548200,6.78954833984375,8.427000045776367,-8.6089506149292,15.906001091003418
1766015514828155000,6.79915478515625,5.902950286865234,-7.2109503746032715,12.211050987243652
1766015514837761300,6.80876123046875,2.328000068664551,-6.142950057983398,9.204000473022461
1766015514847368000,6.818367919921875,-1.602000117301941,-5.002950191497803,7.627950191497803
1766015514856974300,6.827974365234375,-5.064000129699707,-3.6150002479553223,7.710000514984131
1766015514866581000,6.8375810546875,-8.074049949645996,-1.8930001258850098,8.124000549316406
1766015514876187600,6.847187744140625,-10.873050689697266,0.012000000104308128,8.220000267028809
1766015514885794000,6.8567939453125,-12.478950500488281,1.5349500179290771,7.8510003089904785
1766015514895400700,6.866400634765625,-13.044000625610352,2.902050256729126,7.150050163269043
1766015514905007400,6.87600732421875,-13.546950340270996,4.168050289154053,6.637050151824951
1766015514914613800,6.88561376953125,-14.18595027923584,5.194950103759766,6.256950378417969
1766015514924220400,6.895220458984375,-15.0600004196167,5.791950225830078,5.410950183868408
1766015514933827000,6.9048271484375,-16.765050888061523,5.871000289916992,3.778050184249878
1766015514943433500,6.91443359375,-18.457950592041016,5.446950435638428,1.5019500255584717
1766015514953040100,6.9240400390625,-19.501951217651367,4.5610504150390625,-1.0930500030517578
1766015514962646500,6.933646484375,-19.369951248168945,3.5719501972198486,-3.0420000553131104
1766015514972253200,6.943253173828125,-18.06300163269043,2.887050151824951,-3.700050115585327
1766015514981859800,6.95285986328125,-15.901050567626953,2.362950086593628,-3.058950185775757
1766015514991466200,6.96246630859375,-13.261950492858887,1.6950000524520874,-1.380000114440918
1766015515001073000,6.972072998046875,-11.119050979614258,0.6439500451087952,1.0080000162124634
1766015515010679300,6.98167919921875,-9.727950096130371,-1.3639500141143799,3.550950050354004
1766015515020286000,6.991285888671875,-8.257950782775879,-5.194950103759766,4.40595006942749
1766015515029892600,7.000892578125,-6.76200008392334,-9.313050270080566,2.5189502239227295
1766015515039499000,7.0104990234375,-5.493000030517578,-13.050000190734863,0.5080500245094299
1766015515049105400,7.02010546875,-0.35895001888275146,-17.226001739501953,0.20100000500679016
1766015515058712300,7.02971240234375,13.58595085144043,-19.089000701904297,-0.6930000185966492
1766015515068318700,7.039318603515625,30.817951202392578,-17.608951568603516,-1.4689500331878662
1766015515077925000,7.048925048828125,43.72995376586914,-15.033000946044922,-0.6280500292778015
1766015515087531800,7.05853173828125,47.87505340576172,-13.045950889587402,2.0160000324249268
1766015515097138400,7.068138427734375,46.50795364379883,-12.604950904846191,7.027950286865234
1766015515106744800,7.077744873046875,44.791053771972656,-12.568950653076172,12.996000289916992
1766015515116351500,7.0873515625,43.82400131225586,-12.660000801086426,15.676051139831543
1766015515125958100,7.096958251953125,41.91105270385742,-12.67905044555664,14.63895034790039
1766015515135564500,7.106564453125,38.473052978515625,-12.564000129699707,12.52500057220459
1766015515145171200,7.116171142578125,35.45595169067383,-11.638050079345703,9.81705093383789
1766015515154777600,7.125777587890625,34.435951232910156,-10.405050277709961,7.4920501708984375
1766015515164384300,7.13538427734375,33.672000885009766,-9.418050765991211,7.092000484466553
1766015515173991000,7.144990966796875,32.10600280761719,-8.920050621032715,7.8319501876831055
1766015515183597300,7.154597412109375,30.459001541137695,-9.184050559997559,8.998050689697266
1766015515193204000,7.164203857421875,28.423952102661133,-9.805950164794922,9.253950119018555
1766015515202810600,7.173810546875,24.48495101928711,-10.410000801086426,8.341950416564941
1766015515212417000,7.1834169921875,18.559051513671875,-10.54800033569336,7.528050422668457
1766015515222023700,7.193023681640625,11.472000122070312,-9.655050277709961,7.758000373840332
1766015515231630300,7.20263037109375,4.771050453186035,-8.005949974060059,8.265000343322754
1766015515241236700,7.21223681640625,-0.48600003123283386,-6.303000450134277,8.006999969482422
1766015515250843100,7.221843017578125,-4.23105001449585,-4.639050006866455,7.078050136566162
1766015515260449800,7.23144970703125,-6.979950428009033,-2.877000093460083,6.5560503005981445
1766015515270056400,7.241056396484375,-9.076950073242188,-1.2390000820159912,6.967950344085693
1766015515279662800,7.250662841796875,-10.819950103759766,0.1770000010728836,7.4659504890441895
1766015515289269500,7.26026953125,-12.127050399780273,1.446000099182129,7.321950435638428
1766015515298876200,7.269876220703125,-13.425000190734863,2.7199501991271973,6.5560503005981445
1766015515308482600,7.279482666015625,-15.265951156616211,3.5340001583099365,5.668050289154053
1766015515318089000,7.2890888671875,-17.191051483154297,4.065000057220459,4.645050048828125
1766015515327695600,7.298695556640625,-18.084001541137695,4.2619500160217285,3.7189502716064453
1766015515337302000,7.308302001953125,-17.983951568603516,3.819000244140625,2.8540501594543457
1766015515346908700,7.31790869140625,-17.206050872802734,2.9280002117156982,1.8390001058578491
1766015515356515300,7.327515380859375,-16.00800132751465,1.8750001192092896,1.152000069618225
1766015515366122000,7.3371220703125,-14.410950660705566,0.8670000433921814,0.7470000386238098
1766015515375728400,7.346728271484375,-12.582000732421875,0.23895001411437988,0.7380000352859497
1766015515385335000,7.3563349609375,-11.155050277709961,-0.1860000044107437,1.5589500665664673
1766015515394941700,7.365941650390625,-10.188000679016113,-0.8730000257492065,2.731950044631958
1766015515404548000,7.375548095703125,-8.998050689697266,-2.061000108718872,3.261000156402588
1766015515414154800,7.38515478515625,-7.3120503425598145,-3.516000270843506,2.968950033187866
1766015515423761400,7.394761474609375,-5.974050521850586,-5.440950393676758,2.086050033569336
1766015515433367800,7.404367919921875,-5.5410003662109375,-7.753950595855713,0.970050036907196
1766015515442974500,7.413974365234375,-4.173000335693359,-10.74000072479248,1.4899500608444214
1766015515452580900,7.423580810546875,2.179949998855591,-13.893000602722168,2.7199501991271973
1766015515462187300,7.433187255859375,12.814950942993164,-15.46605110168457,2.803950071334839
1766015515471794200,7.442794189453125,25.705951690673828,-15.66300106048584,2.8210501670837402
1766015515481400600,7.452400634765625,37.97205352783203,-15.35400104522705,2.7150001525878906
1766015515491007200,7.46200732421875,46.980003356933594,-14.154000282287598,2.9239501953125
1766015515500613600,7.471613525390625,51.172054290771484,-12.48495101928711,5.377950191497803
1766015515510220300,7.48122021484375,50.03505325317383,-11.820000648498535,9.544050216674805
1766015515519827000,7.490826904296875,44.73105239868164,-11.679000854492188,12.688050270080566
1766015515529433300,7.500433349609375,38.074951171875,-10.843050956726074,14.809050559997559
1766015515539040000,7.5100400390625,32.10404968261719,-9.706050872802734,16.51395034790039
1766015515548646400,7.519646484375,27.86100196838379,-8.074950218200684,16.38705062866211
1766015515558253000,7.529253173828125,25.369050979614258,-6.409050464630127,14.248950958251953
1766015515567859500,7.538859375,23.974950790405273,-5.152050018310547,11.95305061340332
1766015515577466000,7.548466064453125,22.79505157470703,-4.41195011138916,10.104000091552734
1766015515587072800,7.55807275390625,21.691051483154297,-4.170000076293945,8.449950218200684
1766015515596679200,7.56767919921875,20.38905143737793,-4.1579999923706055,6.750000476837158
1766015515606285800,7.577285888671875,18.325050354003906,-4.090950012207031,5.449950218200684
1766015515615892200,7.586892333984375,14.953950881958008,-3.5809502601623535,6.259050369262695
1766015515625499000,7.596498779296875,10.912050247192383,-2.7360000610351562,8.754000663757324
1766015515635105500,7.60610546875,8.293050765991211,-3.0810000896453857,12.580050468444824
1766015515644712000,7.6157119140625,7.299000263214111,-1.5000001192092896,11.938050270080566
1766015515654318600,7.625318603515625,6.6499505043029785,1.165950059890747,7.935000419616699
1766015515663925000,7.634925048828125,5.862000465393066,1.543950080871582,5.718000411987305
1766015515673531600,7.64453173828125,4.7989501953125,0.48795002698898315,3.5440502166748047
1766015515683138300,7.65413818359375,3.544950246810913,-0.9589500427246094,0.5820000171661377
1766015515692744700,7.66374462890625,1.7869501113891602,-2.0560500621795654,-3.5280001163482666
1766015515702351400,7.673351318359375,0.2050500065088272,-2.571000099182129,-7.158000469207764
1766015515711958000,7.6829580078125,-0.9600000381469727,-2.2759501934051514,-9.894000053405762
1766015515721564400,7.692564453125,-1.450950026512146,-1.9480501413345337,-11.362051010131836
1766015515731170800,7.7021708984375,-0.004950000438839197,-2.073000192642212,-12.487051010131836
1766015515740777500,7.711777587890625,2.1559500694274902,-2.4250500202178955,-14.55405044555664
1766015515750384000,7.721384033203125,3.217050075531006,-2.7910501956939697,-17.910001754760742
1766015515759990500,7.730990478515625,3.9280502796173096,-2.5060501098632812,-21.478050231933594
1766015515769597200,7.74059716796875,4.210050106048584,-2.461050033569336,-26.539051055908203
1766015515779203800,7.750203857421875,2.0220000743865967,-4.3090500831604,-32.23500061035156
1766015515788810200,7.759810302734375,-1.1400001049041748,-5.410050392150879,-33.78900146484375
1766015515798417000,7.7694169921875,-4.565999984741211,-8.032050132751465,-34.63395309448242
1766015515808023300,7.779023193359375,-6.622950077056885,-13.066950798034668,-28.23495101928711
1766015515817630000,7.7886298828125,-6.027000427246094,-17.06100082397461,-17.54400062561035
1766015515827236600,7.798236572265625,-1.7740501165390015,-19.302000045776367,-5.785950183868408
1766015515836843000,7.807843017578125,4.668000221252441,-17.83395004272461,4.954050064086914
1766015515846449700,7.81744970703125,10.368000030517578,-14.358000755310059,17.94300079345703
1766015515865662700,7.836662841796875,17.6059513092041,-6.193050384521484,43.47600173950195
1766015515875269400,7.846269287109375,8.284950256347656,0.0499500036239624,38.332950592041016
1766015515884876000,7.8558759765625,-6.886050224304199,1.429050087928772,31.16400146484375
1766015515894482400,7.865482421875,-16.540050506591797,-0.7729500532150269,23.365951538085938
1766015515904089000,7.875089111328125,-16.30500030517578,-4.579050064086914,20.5030517578125
1766015515913695500,7.884695556640625,-6.730950355529785,-5.367000102996826,24.184951782226562
1766015515923302100,7.89430224609375,3.307950258255005,-2.4559500217437744,30.820051193237305
1766015515932908500,7.903908447265625,9.565950393676758,0.22005000710487366,38.36205291748047
1766015515942515200,7.91351513671875,11.700000762939453,1.6470000743865967,42.33795166015625
1766015515952121600,7.92312158203125,9.6739501953125,1.7209501266479492,41.614952087402344
1766015515961728300,7.932728271484375,5.929050445556641,1.204050064086914,38.17500305175781
1766015515971334700,7.942334716796875,2.6920502185821533,0.5500500202178955,34.489952087402344
1766015515980941300,7.95194140625,1.2529500722885132,0.0070500001311302185,31.228952407836914
1766015515990635500,7.961635498046875,0.8800500631332397,-0.46095001697540283,27.68505096435547
1766015516000154400,7.971154296875,1.4040000438690186,-1.2829500436782837,25.033050537109375
1766015516009761000,7.980760986328125,2.458050012588501,-1.467000126838684,22.240951538085938
1766015516019367700,7.99036767578125,2.5660500526428223,-0.40605002641677856,18.352951049804688
1766015516028974000,7.99997412109375,1.6840500831604004,0.18195000290870667,15.120000839233398
1766015516038580700,8.009580810546876,0.6379500031471252,0.009000000543892384,12.870000839233398
1766015516048187100,8.019187255859375,-0.21300001442432404,-0.45705002546310425,10.951950073242188
1766015516057793800,8.028793701171875,-1.1779500246047974,-1.0069500207901,8.826000213623047
1766015516067400400,8.038400390625,-2.63100004196167,-1.4359500408172607,6.604050159454346
1766015516077006800,8.0480068359375,-3.6229500770568848,-2.182950019836426,4.936950206756592
1766015516086613500,8.057613525390625,-3.6060001850128174,-3.5380501747131348,3.739950180053711
1766015516096220000,8.067219970703125,-2.892000198364258,-4.939050197601318,2.176950216293335
1766015516105826600,8.07682666015625,-1.8460501432418823,-5.784000396728516,0.3139500021934509
1766015516115433200,8.08643310546875,-0.9289500713348389,-6.217050075531006,-1.4880000352859497
1766015516125039600,8.09603955078125,-0.3469500243663788,-6.6739501953125,-3.138000249862671
1766015516134646300,8.105646240234375,0.030000001192092896,-7.3660502433776855,-5.06505012512207
1766015516144253000,8.1152529296875,0.35100001096725464,-7.515000343322754,-7.390050411224365
1766015516153859300,8.124859375,1.3320000171661377,-6.78000020980835,-10.492950439453125
1766015516163465700,8.1344658203125,3.2220001220703125,-5.737950325012207,-15.006000518798828
1766015516173072400,8.144072265625,4.8949503898620605,-4.4599504470825195,-20.733001708984375
1766015516182679000,8.153678955078124,5.56095027923584,-2.559000015258789,-27.45600128173828
1766015516192285400,8.163285400390626,4.69605016708374,-1.1269500255584717,-32.90595245361328
1766015516201892000,8.17289208984375,2.596950054168701,-1.1509500741958618,-35.3260498046875
1766015516211498800,8.182498779296875,-0.10305000841617584,-3.2479500770568848,-34.84305191040039
1766015516221105200,8.192105224609374,-2.6890501976013184,-8.038949966430664,-30.970951080322266
1766015516230711800,8.2017119140625,-3.630000114440918,-14.046000480651855,-24.22905158996582
1766015516240318200,8.211318115234375,-3.3070502281188965,-20.329050064086914,-16.00200080871582
1766015516249924900,8.2209248046875,-1.8889501094818115,-25.56300163269043,-6.384000301361084
1766015516259531500,8.230531494140624,1.5240000486373901,-29.320051193237305,5.980950355529785
1766015516269138000,8.240137939453126,11.233050346374512,-29.69805145263672,21.66105079650879
1766015516278744600,8.24974462890625,30.01605224609375,-22.474050521850586,39.8869514465332
1766015516288351000,8.25935107421875,47.487003326416016,-16.06694984436035,64.60800170898438
1766015516297957600,8.26895751953125,55.534053802490234,-8.793000221252441,76.91205596923828
1766015516317170700,8.288170654296875,31.456951141357422,-3.8179502487182617,51.21900177001953
1766015516326777300,8.29777734375,19.290000915527344,-5.365050315856934,34.01805114746094
1766015516336383700,8.3073837890625,12.253050804138184,-3.925950288772583,21.360000610351562
1766015516345990400,8.316990478515624,6.778950214385986,-1.9099501371383667,15.928950309753418
1766015516355596800,8.3265966796875,3.95205020904541,-0.29805001616477966,15.718950271606445
1766015516365203500,8.336203369140625,4.7470502853393555,0.49800002574920654,17.320951461791992
1766015516374810000,8.34581005859375,6.679050445556641,0.44805002212524414,19.180950164794922
1766015516384416500,8.35541650390625,8.443050384521484,0.37800002098083496,21.02505111694336
1766015516394023200,8.365023193359375,9.054000854492188,0.40005001425743103,22.288951873779297
1766015516403629800,8.3746298828125,8.281050682067871,0.5410500168800354,22.327051162719727
1766015516413236200,8.384236328125,6.337050437927246,0.5620500445365906,20.365951538085938
1766015516422843000,8.3938427734375,3.6409502029418945,0.09600000083446503,16.770000457763672
1766015516432425200,8.40342529296875,0.9610500335693359,-0.7770000100135803,12.694951057434082
1766015516442056000,8.413055908203125,-1.3339500427246094,-1.3260000944137573,9.034049987792969
1766015516451662300,8.422662353515625,-3.2059502601623535,-1.5340501070022583,5.823000431060791
1766015516461269000,8.43226904296875,-4.486950397491455,-1.6489500999450684,3.6439502239227295
1766015516470875600,8.441875732421876,-5.3680500984191895,-1.9530000686645508,1.3699500560760498
1766015516480482000,8.45148193359375,-6.010050296783447,-1.725000023841858,0.26805001497268677
1766015516490088700,8.461088623046875,-6.402000427246094,-1.5360000133514404,-0.10905000567436218
1766015516499695400,8.4706953125,-6.514950275421143,-1.4239500761032104,-0.24105000495910645
1766015516509301800,8.4803017578125,-6.522000312805176,-1.4959501028060913,-0.9760500192642212
1766015516518908400,8.489908447265625,-6.313950061798096,-2.16795015335083,-2.593950033187866
1766015516528515000,8.49951513671875,-6.055050373077393,-2.7360000610351562,-4.990950107574463
1766015516538121500,8.50912158203125,-6.225000381469727,-1.5460500717163086,-9.255000114440918
1766015516547728000,8.518727783203126,-7.180950164794922,-0.6889500617980957,-12.367950439453125
1766015516557334500,8.52833447265625,-8.493000030517578,0.5959500074386597,-14.202000617980957
1766015516566941200,8.537941162109375,-9.754950523376465,2.8350000381469727,-12.97800064086914
1766015516576547600,8.547547607421874,-11.883000373840332,4.132050037384033,-12.43695068359375
1766015516586154200,8.557154296875,-14.347050666809082,3.547950267791748,-12.046950340270996
1766015516595761000,8.566760986328125,-16.027950286865234,2.5860002040863037,-9.183000564575195
1766015516605367300,8.5763671875,-16.43505096435547,0.07395000010728836,-7.749000549316406
1766015516614974200,8.58597412109375,-14.20995044708252,-1.6699501276016235,-5.941050052642822
1766015516624580600,8.59558056640625,-9.541050910949707,-4.006950378417969,-4.657950401306152
1766015516634187000,8.60518701171875,-4.954050064086914,-7.0000505447387695,-1.5810000896453857
1766015516643793700,8.614793701171875,-2.2360501289367676,-10.359000205993652,1.971000075340271
1766015516653400300,8.624400390625,-0.9510000348091125,-13.831050872802734,3.38100004196167
1766015516663006700,8.6340068359375,0.8250000476837158,-17.647050857543945,2.5690500736236572
1766015516672613000,8.643613037109375,6.169050216674805,-21.871051788330078,0.37905001640319824
1766015516682220000,8.653219970703125,17.7049503326416,-25.28805160522461,-2.8720500469207764
1766015516691826400,8.662826416015625,32.95395278930664,-27.106950759887695,-6.31695032119751
1766015516701432800,8.672432861328126,46.20900344848633,-26.374950408935547,-7.801950454711914
1766015516711039500,8.68203955078125,52.314002990722656,-24.64605140686035,-6.504000186920166
1766015516720646100,8.691646240234375,52.08195114135742,-24.378000259399414,-4.633950233459473
1766015516730252500,8.70125244140625,47.961002349853516,-25.801950454711914,-4.729950428009033
1766015516739859200,8.710859130859374,39.79395294189453,-26.10405158996582,-5.635050296783447
1766015516749465600,8.720465576171875,29.401050567626953,-24.724950790405273,-6.69795036315918
1766015516759072300,8.730072265625,20.793001174926758,-22.76205062866211,-7.845000267028809
1766015516768679000,8.739678955078125,16.145999908447266,-20.551950454711914,-8.050950050354004
1766015516778285600,8.74928564453125,15.588000297546387,-17.676000595092773,-7.201050281524658
1766015516787892000,8.75889208984375,16.906949996948242,-16.54905128479004,-5.898000240325928
1766015516797498400,8.768498291015625,18.801000595092773,-15.781950950622559,-1.228950023651123
1766015516807105000,8.77810498046875,20.499000549316406,-15.619950294494629,3.1660501956939697
1766015516816711700,8.787711669921874,21.349050521850586,-13.620000839233398,8.65095043182373
1766015516826318000,8.797318115234376,21.16200065612793,-11.214000701904297,14.457000732421875
1766015516835924700,8.8069248046875,19.834951400756836,-8.494050025939941,17.19795036315918
1766015516845531400,8.816531494140625,16.858951568603516,-5.844000339508057,16.97100067138672
1766015516855137800,8.8261376953125,12.277050971984863,-3.6739501953125,15.951001167297363
1766015516864744400,8.835744384765626,6.514050483703613,-2.073000192642212,16.10205078125
1766015516874351000,8.84535107421875,2.757000207901001,0.34200000762939453,17.541000366210938
1766015516883957500,8.85495751953125,1.3200000524520874,3.052950143814087,19.11600112915039
1766015516893564200,8.864564208984374,1.1530500650405884,5.065950393676758,20.08395004272461
1766015516903170600,8.874170654296876,1.0500000715255737,6.148050308227539,19.155000686645508
1766015516912777200,8.883777099609375,0.4030500054359436,6.421050071716309,16.558950424194336
1766015516922384000,8.8933837890625,-0.9360000491142273,6.049950122833252,13.498950958251953
1766015516931990300,8.902990234375,-2.385000228881836,5.526000499725342,11.51400089263916
1766015516941597000,8.912596923828126,-3.2179501056671143,5.397000312805176,10.213950157165527
1766015516951203300,8.922203369140625,-3.6660001277923584,5.167050361633301,8.493000030517578
1766015516960810000,8.93181005859375,-4.207050323486328,4.309950351715088,6.094050407409668
1766015516970416400,8.94141650390625,-4.88700008392334,2.751000165939331,3.259050130844116
1766015516980023000,8.95102294921875,-5.191050052642822,1.336050033569336,0.7020000219345093
1766015516989629400,8.96062939453125,-5.220000267028809,0.831000030040741,-1.1260499954223633
1766015516999236000,8.970236083984375,-5.473950386047363,0.5620500445365906,-2.8339500427246094
1766015517008842800,8.9798427734375,-6.652050495147705,-0.17595000565052032,-4.210050106048584
1766015517018449200,8.98944921875,-8.335050582885742,-1.180050015449524,-5.230050086975098
1766015517028055800,8.999055908203125,-9.778050422668457,-2.133000135421753,-5.512950420379639
1766015517037662500,9.008662353515625,-10.138050079345703,-3.3319501876831055,-5.938950061798096
1766015517047268900,9.018268798828124,-9.367050170898438,-5.230950355529785,-7.150050163269043
1766015517056875500,9.02787548828125,-7.710000514984131,-7.647000312805176,-8.179950714111328
1766015517066482000,9.03748193359375,-5.28000020980835,-10.00005054473877,-8.296950340270996
1766015517076088600,9.047088623046875,0.5140500068664551,-12.202950477600098,-10.543050765991211
1766015517085695200,9.0566953125,9.046950340270996,-14.659050941467285,-16.201051712036133
1766015517095301600,9.066301513671876,19.407001495361328,-16.885950088500977,-22.1820011138916
1766015517104908300,9.075908203125,30.22395133972168,-17.809951782226562,-26.641950607299805
1766015517114515000,9.085514892578125,37.39800262451172,-17.57805061340332,-26.64495086669922
1766015517124121300,9.095121337890625,38.52300262451172,-19.02195167541504,-21.408000946044922
1766015517133728000,9.10472802734375,34.294952392578125,-20.821950912475586,-13.797000885009766
1766015517143334700,9.114334716796876,28.105051040649414,-21.217050552368164,-4.4760003089904785
1766015517152941000,9.123941162109375,23.611051559448242,-20.251951217651367,2.8090500831604004
1766015517162547500,9.13354736328125,21.217050552368164,-18.34200096130371,8.395050048828125
1766015517172154400,9.143154296875,20.10795021057129,-14.63805103302002,12.445950508117676
1766015517181760800,9.1527607421875,19.21095085144043,-10.575000762939453,15.064950942993164
1766015517191367200,9.1623671875,18.061050415039062,-6.612000465393066,16.61400032043457
1766015517200973800,9.171973876953125,16.28205108642578,-2.9250001907348633,16.518001556396484
1766015517210580500,9.18158056640625,13.701000213623047,-0.3060000240802765,15.205950736999512
1766015517220187000,9.191186767578126,10.692000389099121,1.420050024986267,13.429950714111328
1766015517229793300,9.200793212890625,8.143950462341309,2.4160501956939697,11.47605037689209
1766015517239400000,9.21039990234375,6.363000392913818,2.7580502033233643,9.232950210571289
1766015517249006600,9.220006591796874,5.119950294494629,2.9760000705718994,7.012950420379639
1766015517258613200,9.22961328125,4.299000263214111,3.3450002670288086,5.6509504318237305
1766015517268219600,9.2392197265625,3.865950107574463,3.3160500526428223,5.098050117492676
1766015517277826300,9.248826416015625,3.375000238418579,4.105950355529785,6.196950435638428
1766015517287432700,9.2584326171875,2.4100501537323,4.683000087738037,8.94105052947998
1766015517297039400,9.268039306640626,1.29705011844635,5.65500020980835,11.494950294494629
1766015517306646000,9.27764599609375,0.2689500153064728,5.599950313568115,13.521000862121582
1766015517316252400,9.28725244140625,-0.520050048828125,4.888950347900391,12.606000900268555
1766015517325859000,9.296859130859374,-1.1020500659942627,3.031050205230713,8.89995002746582
1766015517335465700,9.3064658203125,-1.6789500713348389,1.0390501022338867,4.912950038909912
1766015517345072000,9.316072021484375,-2.0209500789642334,-0.5929500460624695,1.2619500160217285
1766015517354678500,9.325678466796875,-1.7910001277923584,-1.8619500398635864,-2.4409501552581787
1766015517364285400,9.335285400390624,-1.2280501127243042,-2.2829999923706055,-5.575050354003906
1766015517373891800,9.344891845703126,-0.9480000734329224,-2.1250500679016113,-7.668000221252441
1766015517383498200,9.354498291015625,-2.0689501762390137,-2.2639501094818115,-9.211950302124023
1766015517393105200,9.364105224609375,-3.7980000972747803,-2.4630000591278076,-11.455050468444824
1766015517402711600,9.373711669921875,-5.694000244140625,-2.2860000133514404,-14.1510009765625
1766015517412318000,9.38331787109375,-7.071000099182129,-2.6520001888275146,-15.861001014709473
1766015517421924900,9.3929248046875,-6.640050411224365,-3.910950183868408,-17.50800132751465
1766015517431531000,9.402531005859375,-3.630000114440918,-5.95395040512085,-18.315000534057617
1766015517441137700,9.4121376953125,1.0260000228881836,-8.463000297546387,-17.736000061035156
1766015517450744300,9.421744384765624,6.789000511169434,-11.34795093536377,-16.631999969482422
1766015517460350700,9.431350830078125,14.082000732421875,-14.65005111694336,-15.01305103302002
1766015517469957400,9.440957275390625,23.680952072143555,-17.85795021057129,-11.68005084991455
1766015517479564000,9.45056396484375,34.35405349731445,-19.951051712036133,-5.9920501708984375
1766015517489170400,9.46017041015625,42.531002044677734,-20.69805145263672,2.6170501708984375
1766015517498777000,9.469777099609376,44.1640510559082,-20.362951278686523,11.770950317382812
1766015517508383700,9.4793837890625,38.92500305175781,-18.093000411987305,18.721050262451172
1766015517517990100,9.488990234375,31.28295135498047,-15.897000312805176,25.171051025390625
1766015517527596800,9.4985966796875,23.57805061340332,-10.704000473022461,24.439050674438477
1766015517537203200,9.508203125,17.82000160217285,-5.587050437927246,19.68600082397461
1766015517546809900,9.517809814453125,14.644950866699219,-2.725950241088867,15.181950569152832
1766015517556416300,9.527416259765625,13.833000183105469,-1.1959500312805176,11.830050468444824
1766015517566023000,9.53702294921875,13.420950889587402,-0.44505003094673157,9.922050476074219
1766015517575629300,9.54662939453125,11.905950546264648,-0.08295000344514847,9.877050399780273
1766015517585236200,9.556236328125,9.985050201416016,0.43095001578330994,10.381950378417969
1766015517594842600,9.565842529296875,8.221050262451172,0.9889500737190247,10.834050178527832
1766015517604449300,9.57544921875,6.448950290679932,1.350000023841858,10.94205093383789
1766015517614055700,9.5850556640625,4.411050319671631,1.6350001096725464,10.423050880432129
1766015517623662300,9.594662353515625,2.139000177383423,1.894050121307373,9.22095012664795
1766015517633268700,9.604268798828125,-0.3930000066757202,2.044950008392334,7.249950408935547
1766015517642875400,9.61387548828125,-2.782050132751465,1.9270501136779785,4.975950241088867
1766015517652481800,9.623481689453126,-4.966050148010254,1.7910001277923584,2.8999500274658203
1766015517662088400,9.63308837890625,-7.276050567626953,1.867050051689148,0.8380500674247742
1766015517671695000,9.642695068359375,-9.829050064086914,2.2669501304626465,-0.9160500168800354
1766015517681301500,9.652301513671874,-12.517951011657715,2.7460501194000244,-1.8930001258850098
1766015517690908200,9.661908203125,-14.292000770568848,2.868000030517578,-1.9690500497817993
1766015517700514800,9.671514892578125,-14.3899507522583,2.7769501209259033,-1.9930500984191895
1766015517710121200,9.681121337890625,-13.564050674438477,2.320050001144409,-1.4110500812530518
1766015517719727900,9.690727783203124,-12.072000503540039,1.377000093460083,0.6300000548362732
1766015517729334500,9.70033447265625,-9.80505084991455,-0.22905001044273376,3.5269501209259033
1766015517738941000,9.70994091796875,-7.408050537109375,-2.511000156402588,6.154050350189209
1766015517748547600,9.719547607421875,-4.32705020904541,-4.351950168609619,8.635950088500977
1766015517758154000,9.729154052734375,-1.5210000276565552,-6.3319501876831055,11.545950889587402
1766015517767760600,9.7387607421875,1.8160500526428223,-9.358050346374512,14.914051055908203
1766015517777367300,9.7483671875,8.10300064086914,-12.211950302124023,18.70905113220215
1766015517786973700,9.7579736328125,19.194000244140625,-13.467000961303711,22.501951217651367
1766015517796580000,9.767580078125,34.15605163574219,-12.793951034545898,26.893051147460938
1766015517806186800,9.777186767578126,49.704002380371094,-10.468950271606445,29.500051498413086
1766015517815793400,9.78679345703125,60.631954193115234,-13.015050888061523,31.74900245666504
1766015517825400000,9.796400146484375,59.763004302978516,-15.811050415039062,26.305952072143555
1766015517835006500,9.80600634765625,52.5150032043457,-18.937950134277344,19.413000106811523
1766015517844613000,9.815613037109374,45.91200256347656,-20.33100128173828,13.473000526428223
1766015517854219800,9.8252197265625,39.16905212402344,-19.347000122070312,6.469950199127197
1766015517863826200,9.834826171875,30.555002212524414,-17.635950088500977,-0.046950001269578934
1766015517873432800,9.844432861328125,20.743051528930664,-15.385050773620605,-5.395050048828125
1766015517883039200,9.854039306640624,11.5420503616333,-11.85300064086914,-10.522050857543945
1766015517892646000,9.86364599609375,5.080050468444824,-8.53695011138916,-15.01305103302002
1766015517902252300,9.873252197265625,3.118950128555298,-6.579000473022461,-17.860050201416016
1766015517911859000,9.88285888671875,5.199000358581543,-5.085000038146973,-19.45905113220215
1766015517921465600,9.892465576171874,8.175000190734863,-4.648950099945068,-18.552000045776367
1766015517931072000,9.902072021484376,9.147000312805176,-5.464950084686279,-16.10700035095215
1766015517940678700,9.9116787109375,8.521950721740723,-6.922950267791748,-13.82805061340332
1766015517950285000,9.92128515625,7.15500020980835,-8.611050605773926,-11.755050659179688
1766015517959891700,9.9308916015625,5.949000358581543,-10.513050079345703,-9.535050392150879
1766015517969498400,9.940498291015626,5.464950084686279,-12.568950653076172,-6.946950435638428
1766015517979104800,9.950104736328125,6.111000061035156,-15.141000747680664,-5.227950096130371
1766015517988711200,9.959711181640625,8.439000129699707,-18.41805076599121,-3.3289501667022705
1766015517998318000,9.969318115234374,11.118000984191895,-21.943050384521484,1.3699500560760498
1766015518007924500,9.978924560546876,12.061050415039062,-24.430051803588867,10.927950859069824
1766015518017531000,9.98853076171875,11.226000785827637,-24.805952072143555,23.69700050354004
1766015518027137500,9.998137451171875,9.10200023651123,-23.029951095581055,38.39295196533203
1766015518036744000,10.007743896484374,5.611050128936768,-19.936050415039062,51.376953125
1766015518046350600,10.0173505859375,1.2130500078201294,-16.99905014038086,58.723052978515625
1766015518055957200,10.026957275390625,-3.151050090789795,-14.848950386047363,58.85400390625
1766015518065564000,10.03656396484375,-6.568050384521484,-13.708950996398926,52.909053802490234
1766015518075170300,10.04617041015625,-9.168000221252441,-12.907051086425781,44.505001068115234
1766015518084776700,10.055776611328126,-11.610000610351562,-11.440950393676758,37.021053314208984
1766015518094383400,10.06538330078125,-12.367050170898438,-9.445050239562988,32.28000259399414
1766015518103990000,10.074989990234375,-11.590950965881348,-7.570050239562988,30.589950561523438
1766015518113596400,10.084596435546874,-10.516050338745117,-7.342050552368164,29.2939510345459
1766015518123203000,10.094203125,-9.08595085144043,-7.627050399780273,27.159000396728516
1766015518132809700,10.103809814453125,-8.866050720214844,-7.824000358581543,25.12605094909668
1766015518142416100,10.113416015625,-11.361001014709473,-8.142000198364258,22.654951095581055
1766015518152022500,10.1230224609375,-14.422950744628906,-8.046000480651855,19.891950607299805
1766015518161629400,10.13262939453125,-15.484050750732422,-7.168050289154053,16.825050354003906
1766015518171235800,10.14223583984375,-17.851951599121094,-5.025000095367432,11.308950424194336
1766015518180842200,10.15184228515625,-25.25295066833496,-3.9190502166748047,5.317950248718262
1766015518190449000,10.161448974609375,-32.062049865722656,-3.741000175476074,1.7220001220703125
1766015518200055600,10.1710556640625,-34.441951751708984,-2.1439499855041504,-1.327950119972229
1766015518209662000,10.180661865234375,-32.47200012207031,-1.1320500373840332,-3.784050226211548
1766015518219268600,10.1902685546875,-27.823951721191406,-1.1959500312805176,-5.328000068664551
1766015518228875000,10.199875,-21.553951263427734,-1.294950008392334,-5.659050464630127
1766015518238481700,10.209481689453124,-15.424050331115723,-1.6300500631332397,-3.850950241088867
1766015518248088000,10.219088134765625,-11.49000072479248,-1.7899501323699951,0.5650500059127808
1766015518257694700,10.22869482421875,-10.783950805664062,-2.0059502124786377,4.984950065612793
1766015518267301400,10.23830126953125,-11.457000732421875,-3.9190502166748047,8.692049980163574
1766015518276907800,10.24790771484375,-12.127050399780273,-7.558050155639648,10.717050552368164
1766015518286514400,10.257514404296876,-11.577000617980957,-11.917950630187988,11.779950141906738
1766015518296121000,10.26712109375,-7.284000396728516,-16.20600128173828,11.668050765991211
1766015518305727500,10.2767275390625,0.7840500473976135,-19.7760009765625,10.68600082397461
1766015518315334100,10.286334228515624,11.31195068359375,-21.79905128479004,10.875000953674316
1766015518324940800,10.29594091796875,23.985000610351562,-21.8470516204834,14.055000305175781
1766015518334547200,10.305547119140625,39.066001892089844,-20.638050079345703,20.136001586914062
1766015518344153900,10.31515380859375,55.78095245361328,-18.835050582885742,25.215002059936523
1766015518353760300,10.32476025390625,64.89405059814453,-14.620950698852539,24.775951385498047
1766015518363367000,10.334366943359376,59.82705307006836,-11.793000221252441,21.51795196533203
1766015518372973600,10.3439736328125,48.44700241088867,-13.71405029296875,21.1200008392334
1766015518382580000,10.353580078125,34.89105224609375,-13.02405071258545,15.433950424194336
1766015518392186600,10.3631865234375,23.950950622558594,-11.812950134277344,9.927000045776367
1766015518401793000,10.37279296875,17.25,-10.381050109863281,5.449950218200684
1766015518411399700,10.382399658203125,13.534050941467285,-8.218950271606445,0.8860500454902649
1766015518421006300,10.39200634765625,11.869950294494629,-7.495950222015381,-0.21195000410079956
1766015518430612700,10.40161279296875,11.074950218200684,-4.05495023727417,-2.7739500999450684
1766015518440219400,10.411219482421876,11.056050300598145,-1.3830000162124634,-3.195000171661377
1766015518449825800,10.42082568359375,11.908050537109375,-1.0219500064849854,-1.4380500316619873
1766015518459432400,10.430432373046875,13.84005069732666,-2.2139999866485596,0.07200000435113907
1766015518469038800,10.440038818359374,15.720001220703125,-4.04295015335083,0.12195000797510147
1766015518478645500,10.4496455078125,15.70305061340332,-5.640000343322754,-1.7560501098632812
1766015518488252200,10.459252197265625,13.171950340270996,-7.120050430297852,-4.519050121307373
1766015518497858600,10.468858642578125,9.624000549316406,-8.062950134277344,-6.39900016784668
1766015518507465200,10.47846533203125,6.672000408172607,-8.346000671386719,-6.29295015335083
1766015518517071600,10.488071533203126,4.05495023727417,-8.571000099182129,-4.531050205230713
1766015518526678300,10.49767822265625,2.1010501384735107,-9.145050048828125,-2.974950075149536
1766015518536284700,10.50728466796875,2.605950117111206,-9.433050155639648,0.29205000400543213
1766015518545891300,10.516891357421875,5.047950267791748,-9.499950408935547,5.545050144195557
1766015518555497700,10.526497802734376,9.030000686645508,-9.789000511169434,12.099000930786133
1766015518565104600,10.536104736328125,13.653000831604004,-10.620000839233398,19.588050842285156
1766015518574711000,10.5457109375,17.590051651000977,-11.182950973510742,27.144001007080078
1766015518584317400,10.5553173828125,18.064050674438477,-12.567000389099121,36.862953186035156
1766015518593924000,10.564924072265624,16.000051498413086,-12.48495101928711,45.370052337646484
1766015518603530800,10.57453076171875,11.874000549316406,-9.84000015258789,49.4659538269043
1766015518613137200,10.58413720703125,5.424000263214111,-6.883050441741943,49.243953704833984
1766015518622743800,10.593743896484375,-2.1529500484466553,-4.98900032043457,45.4890022277832
1766015518632350500,10.6033505859375,-8.398950576782227,-3.5430002212524414,38.91495132446289
1766015518641956900,10.612956787109376,-12.556050300598145,-2.382000207901001,31.834951400756836
1766015518651563300,10.622563232421875,-15.012001037597656,-1.2610501050949097,24.970050811767578
1766015518661170200,10.632170166015625,-15.052950859069824,-0.33900001645088196,19.216951370239258
1766015518670776600,10.641776611328124,-13.771950721740723,-0.2670000195503235,15.79800033569336
1766015518680383200,10.65138330078125,-12.826050758361816,-0.6340500116348267,13.315051078796387
1766015518689989600,10.66098974609375,-11.395051002502441,-0.6840000152587891,11.068950653076172
1766015518699596000,10.670595947265625,-9.490950584411621,-0.5500500202178955,8.95305061340332
1766015518709202700,10.68020263671875,-8.578950881958008,-0.17400000989437103,7.51800012588501
1766015518718809300,10.689809326171876,-9.181950569152832,0.25095000863075256,6.429000377655029
1766015518728415700,10.699415771484375,-10.903950691223145,0.7320000529289246,5.593050479888916
1766015518738022400,10.7090224609375,-12.604050636291504,0.8110500574111938,4.5520501136779785
1766015518747628800,10.71862890625,-14.170050621032715,0.5790000557899475,2.067000150680542
1766015518757235500,10.7282353515625,-16.360050201416016,0.2749500274658203,-1.4209500551223755
1766015518766841900,10.737841796875,-17.941051483154297,0.7320000529289246,-4.419000148773193
1766015518776448500,10.747448486328125,-16.945051193237305,1.4149500131607056,-5.551050186157227
1766015518786055200,10.75705517578125,-14.184000968933105,1.0630500316619873,-3.135000228881836
1766015518795661600,10.76666162109375,-11.193000793457031,-0.23400001227855682,1.7700001001358032
1766015518805268200,10.776268310546875,-7.947000503540039,-2.0749499797821045,6.007950305938721
1766015518814874600,10.78587451171875,-4.822050094604492,-4.5769500732421875,8.914050102233887
1766015518824481300,10.795481201171874,-1.5400500297546387,-7.507950305938721,10.7989501953125
1766015518834088000,10.805087890625,3.595050096511841,-10.680000305175781,12.52695083618164
1766015518843694300,10.8146943359375,13.732050895690918,-12.592950820922852,14.995950698852539
1766015518853301000,10.824301025390625,27.748950958251953,-12.07395076751709,17.268001556396484
1766015518862907400,10.833907470703124,39.8640022277832,-10.833000183105469,19.759950637817383
1766015518872514000,10.84351416015625,45.85695266723633,-10.76205062866211,20.443050384521484
1766015518882120700,10.85312060546875,46.17300033569336,-11.29995059967041,18.790950775146484
1766015518891727000,10.86272705078125,41.68605041503906,-13.045950889587402,14.37600040435791
1766015518901333800,10.872333740234374,34.37594985961914,-15.052050590515137,7.837050437927246
1766015518910940200,10.881940185546876,27.459001541137695,-14.592000961303711,0.5680500268936157
1766015518920546800,10.891546875,21.44205093383789,-11.949000358581543,-5.296950340270996
1766015518930153500,10.901153564453125,16.492950439453125,-9.571950912475586,-8.248950004577637
1766015518939759900,10.910759765625,13.572000503540039,-7.696950435638428,-8.781000137329102
1766015518949366500,10.920366455078126,12.649950981140137,-6.469050407409668,-8.10105037689209
1766015518958973000,10.929972900390625,12.586050987243652,-6.157050132751465,-6.826950550079346
1766015518968579600,10.93957958984375,12.169050216674805,-6.070950508117676,-5.707050323486328
1766015518978186200,10.949186279296875,11.307000160217285,-5.913000106811523,-5.632050037384033
1766015518987792600,10.958792724609374,10.456950187683105,-6.535950183868408,-5.218050479888916
1766015518997399300,10.9683994140625,12.76305103302002,-6.604950428009033,-4.0980000495910645
1766015519007005700,10.978005615234375,19.869001388549805,-6.303000450134277,-1.453950047492981
1766015519016612000,10.987612060546875,29.07000160217285,-6.556950092315674,1.7310000658035278
1766015519026218800,10.99721875,36.861000061035156,-7.375950336456299,7.153950214385986
1766015519035825400,11.006825439453126,39.4660530090332,-8.266950607299805,13.08495044708252
1766015519045431800,11.016431884765625,35.239952087402344,-8.487000465393066,16.33905029296875
1766015519055038500,11.02603857421875,26.59695053100586,-7.857000350952148,16.82295036315918
1766015519064645000,11.03564501953125,17.82000160217285,-6.325050354003906,15.283050537109375
1766015519074251500,11.04525146484375,10.318050384521484,-3.967050075531006,12.53700065612793
1766015519083858200,11.054858154296875,4.51200008392334,-2.3140501976013184,10.423050880432129
1766015519093464600,11.064464599609375,1.8330000638961792,-1.2559500932693481,9.337950706481934
1766015519103071200,11.0740712890625,1.3230000734329224,-0.2050500065088272,9.360000610351562
1766015519112677600,11.083677734375,0.9330000281333923,0.6919500231742859,10.783950805664062
1766015519122284300,11.0932841796875,-0.3379500210285187,1.2930001020431519,12.77400016784668
1766015519131891000,11.102890869140625,-3.3349502086639404,1.6519501209259033,13.918050765991211
1766015519141497300,11.112497314453124,-8.248050689697266,1.8340500593185425,12.673050880432129
1766015519151103700,11.122103759765626,-14.869050979614258,2.004000186920166,8.938050270080566
1766015519160710700,11.131710693359375,-22.047000885009766,2.136000156402588,4.1419501304626465
1766015519170317000,11.141317138671875,-27.589950561523438,2.8590002059936523,-0.9589500427246094
1766015519179923500,11.15092333984375,-30.511051177978516,3.7920002937316895,-4.609950065612793
1766015519189530000,11.160530029296876,-30.171001434326172,4.204050064086914,-5.653950214385986
1766015519199136800,11.17013671875,-27.193950653076172,3.7920002937316895,-4.383000373840332
1766015519208743200,11.1797431640625,-23.007001876831055,2.5980000495910645,-1.3470001220703125
1766015519218349800,11.189349853515624,-19.31205177307129,0.9859500527381897,1.7100000381469727
1766015519227956500,11.19895654296875,-15.360000610351562,-1.3210500478744507,3.859950065612793
1766015519237563000,11.20856298828125,-9.32805061340332,-4.198950290679932,4.272000312805176
1766015519247169500,11.21816943359375,-1.2720000743865967,-6.081000328063965,4.23105001449585
1766015519266382600,11.237382568359376,12.808050155639648,-7.489050388336182,2.0689501762390137
1766015519275989000,11.246989013671875,19.54305076599121,-9.235950469970703,1.3579500913619995
1766015519285596000,11.256595947265625,25.76595115661621,-11.281050682067871,2.0400002002716064
1766015519295202300,11.266202392578125,33.835052490234375,-13.5600004196167,3.4429502487182617
1766015519304808700,11.27580859375,46.05495071411133,-14.667000770568848,5.0590500831604
1766015519314415400,11.285415283203125,58.32600402832031,-14.181000709533691,7.735950469970703
1766015519324022000,11.29502197265625,64.3519515991211,-12.466050148010254,9.955950736999512
1766015519333628400,11.30462841796875,60.90495300292969,-11.485050201416016,10.099050521850586
1766015519343235000,11.314235107421876,49.43100357055664,-10.900050163269043,8.17905044555664
1766015519352841700,11.323841796875,35.68095016479492,-9.63900089263916,5.964000225067139
1766015519362448100,11.3334482421875,23.680952072143555,-7.258950233459473,4.861050128936768
1766015519372054800,11.3430546875,15.16395092010498,-4.551000118255615,5.347050189971924
1766015519381661400,11.352661376953124,10.74000072479248,-2.25,6.655950546264648
1766015519391267800,11.362267822265625,8.551050186157227,-0.38700002431869507,7.674000263214111
1766015519400874500,11.37187451171875,5.713950157165527,0.49995002150535583,8.72700023651123
1766015519410481200,11.381481201171875,1.6560001373291016,1.0870500802993774,9.853050231933594
1766015519420087600,11.391087646484374,-3.8329501152038574,1.9270501136779785,9.78795051574707
1766015519429694000,11.40069384765625,-10.300050735473633,3.0240001678466797,8.701050758361816
1766015519439300600,11.410300537109375,-16.731000900268555,4.3120503425598145,6.4170002937316895
1766015519448907300,11.4199072265625,-21.178050994873047,5.490000247955322,3.7189502716064453
1766015519458513700,11.429513671875,-23.641050338745117,6.381000518798828,1.6090500354766846
1766015519468120300,11.439120361328126,-24.592050552368164,6.903000354766846,0.8380500674247742
1766015519477726700,11.448726806640625,-24.35700035095215,6.9310503005981445,0.5560500025749207
1766015519487333400,11.45833349609375,-23.6460018157959,6.189000129699707,0.6469500064849854
1766015519496939800,11.467939697265624,-22.426950454711914,4.831050395965576,1.2720000743865967
1766015519506546400,11.47754638671875,-19.67205047607422,3.2659502029418945,2.0429999828338623
1766015519516152800,11.48715283203125,-15.529951095581055,1.4910000562667847,2.6460001468658447
1766015519525759500,11.496759521484375,-10.453950881958008,-0.5359500050544739,3.1440000534057617
1766015519535366100,11.5063662109375,-4.980000019073486,-2.4679501056671143,2.8210501670837402
1766015519544972800,11.515972900390626,-0.6060000061988831,-4.62000036239624,1.276050090789795
1766015519554579200,11.5255791015625,4.663050174713135,-7.338000297546387,-0.9469500184059143
1766015519564185900,11.535185791015625,13.357050895690918,-10.44105052947998,-0.909000039100647
1766015519573792300,11.544792236328124,25.105051040649414,-13.785000801086426,2.4570000171661377
1766015519583399000,11.55439892578125,38.37900161743164,-15.91200065612793,7.3560004234313965
1766015519593005300,11.56400537109375,52.21800231933594,-16.431001663208008,10.783950805664062
1766015519602612000,11.573612060546875,63.073951721191406,-16.483951568603516,12.087000846862793
1766015519612218400,11.58321826171875,66.82305145263672,-16.836000442504883,9.86205005645752
1766015519621825000,11.592824951171876,62.775001525878906,-16.276050567626953,5.217000484466553
1766015519631431400,11.602431396484375,52.884002685546875,-14.929950714111328,1.603950023651123
1766015519641038300,11.612038330078125,39.829952239990234,-13.237051010131836,1.6950000524520874
1766015519650644700,11.621644775390624,27.363000869750977,-10.675050735473633,4.930050373077393
1766015519660251100,11.631251220703126,18.622051239013672,-7.594050407409668,7.590000152587891
1766015519669857800,11.64085791015625,13.747050285339355,-4.978950023651123,9.726000785827637
1766015519679464400,11.65046435546875,10.110000610351562,-2.53695011138916,10.581000328063965
1766015519689070800,11.66007080078125,5.962950229644775,-0.6340500116348267,9.952950477600098
1766015519698677500,11.669677490234376,1.7179501056671143,0.856950044631958,9.25200080871582
1766015519708284000,11.679283935546875,-3.2659502029418945,2.401050090789795,8.94105052947998
1766015519717890600,11.688890625,-9.699000358581543,4.056000232696533,8.176950454711914
1766015519727497200,11.698497314453125,-16.7189998626709,5.409000396728516,6.472050189971924
1766015519737103600,11.708103515625,-22.279050827026367,6.6250505447387695,4.223999977111816
1766015519746710000,11.7177099609375,-26.02800178527832,7.744950294494629,1.8850500583648682
1766015519756316700,11.727316650390625,-27.50295066833496,8.19795036315918,0.6130500435829163
1766015519765923300,11.73692333984375,-26.55000114440918,7.717050552368164,0.7690500617027283
1766015519775530000,11.746530029296874,-24.0340518951416,6.402000427246094,1.3549500703811646
1766015519785136400,11.756136474609375,-20.698951721191406,4.62600040435791,1.9999500513076782
1766015519794743000,11.765742919921875,-17.43494987487793,3.117000102996826,2.8180501461029053
1766015519804349400,11.775349365234375,-15.163050651550293,1.429050087928772,3.919950246810913
1766015519813956000,11.7849560546875,-13.267050743103027,-0.5190000534057617,4.565999984741211
1766015519823562500,11.7945625,-11.719950675964355,-2.6230502128601074,4.437000274658203
1766015519833169200,11.804169189453125,-10.458000183105469,-5.379000186920166,4.411050319671631
1766015519842775800,11.81377587890625,-8.107049942016602,-9.447000503540039,4.0159502029418945
1766015519852382200,11.82338232421875,-0.25905001163482666,-13.32300090789795,2.7559502124786377
1766015519861988900,11.83298876953125,12.633000373840332,-15.660000801086426,0.9360000491142273
1766015519871595300,11.84259521484375,27.53295135498047,-16.28805160522461,0.6010500192642212
1766015519881202000,11.852201904296875,38.5129508972168,-17.121000289916992,2.8159501552581787
1766015519890808600,11.86180859375,40.9170036315918,-18.445051193237305,5.26800012588501
1766015519900415000,11.8714150390625,37.831050872802734,-19.612951278686523,6.6160502433776855
1766015519910021400,11.881021484375,34.26795196533203,-20.719051361083984,6.838050365447998
1766015519919628300,11.890628173828125,32.65005111694336,-21.190950393676758,5.500050067901611
1766015519929234700,11.900234619140624,33.931053161621094,-20.824951171875,2.9760000705718994
1766015519938841000,11.909841064453126,36.403953552246094,-19.44300079345703,0.31200000643730164
1766015519948447700,11.91944775390625,37.96695327758789,-17.214000701904297,-1.8330000638961792
1766015519958054400,11.929054443359375,36.70995330810547,-15.351000785827637,-2.7139501571655273
1766015519967660800,11.938660888671874,32.52300262451172,-14.035050392150879,-2.797950029373169
1766015519977267500,11.948267333984376,26.3070011138916,-12.451951026916504,-1.9290001392364502
1766015519986874000,11.9578740234375,19.201051712036133,-10.468950271606445,0.28995001316070557
1766015519996480500,11.96748046875,13.279951095581055,-8.142000198364258,2.155050039291382
1766015520006087200,11.977087158203124,9.280950546264648,-5.688000202178955,3.727950096130371
1766015520015693600,11.986693603515626,5.293050289154053,-2.809950113296509,6.409950256347656
1766015520025300200,11.99630029296875,0.5590500235557556,-0.05400000140070915,9.211050033569336
1766015520034907000,12.005906982421875,-3.151050090789795,2.1949501037597656,10.2649507522583
1766015520044513500,12.015513427734374,-4.4320502281188965,4.185000419616699,9.379050254821777
1766015520054120000,12.025119873046876,-5.128950119018555,6.127050399780273,8.038050651550293
1766015520063726600,12.0347265625,-7.165950298309326,7.243050575256348,6.822000503540039
1766015520073333000,12.0443330078125,-9.807000160217285,7.25700044631958,5.227050304412842
1766015520082939600,12.053939697265625,-10.765050888061523,6.961950302124023,3.0360002517700195
1766015520092546000,12.063546142578126,-10.309950828552246,6.934050559997559,0.43800002336502075
1766015520102153000,12.073153076171875,-10.213950157165527,7.192050457000732,-1.5840001106262207
1766015520111759400,12.08275927734375,-11.94795036315918,7.198950290679932,-2.376000165939331
1766015520121365800,12.09236572265625,-14.68005084991455,6.463950157165527,-1.8019500970840454
1766015520130972400,12.101972412109374,-15.987000465393066,5.341050148010254,-0.6240000128746033
1766015520140579000,12.1115791015625,-15.87195110321045,3.868950128555298,-0.006000000052154064
1766015520150185500,12.121185546875,-14.098051071166992,1.6399500370025635,-0.004050000105053186
1766015520159791900,12.1307919921875,-10.449000358581543,-0.5929500460624695,-0.08295000344514847
1766015520169398500,12.1403984375,-6.1870503425598145,-2.8120501041412354,0.04305000230669975
1766015520179005200,12.150005126953126,-2.445000171661377,-5.580000400543213,0.4459500312805176
1766015520188611600,12.159611572265625,0.7480500340461731,-8.920050621032715,1.6879501342773438
1766015520198218200,12.16921826171875,3.9019501209259033,-13.069951057434082,3.759000062942505
1766015520207824600,12.17882470703125,6.7099504470825195,-18.24795150756836,6.97005033493042
1766015520217431300,12.188431396484376,10.516950607299805,-23.983051300048828,11.236950874328613
1766015520227037700,12.19803759765625,16.636951446533203,-29.32695198059082,13.94205093383789
1766015520236644000,12.20764404296875,24.08100128173828,-31.88595199584961,13.080000877380371
1766015520246251000,12.2172509765625,33.5880012512207,-35.772003173828125,14.340001106262207
1766015520255857400,12.226857421875,42.487953186035156,-35.629051208496094,11.25105094909668
1766015520265464000,12.236464111328125,47.87295150756836,-32.06595230102539,5.146050453186035
1766015520275070700,12.24607080078125,48.09495162963867,-28.65900230407715,0.1099500060081482
1766015520284677000,12.255677001953124,43.85295104980469,-26.323951721191406,-3.436950206756592
1766015520294283500,12.265283447265626,35.96805191040039,-23.971050262451172,-6.013050079345703
1766015520303890200,12.27489013671875,26.851051330566406,-21.63195037841797,-7.371000289916992
1766015520313496800,12.284496826171875,19.33005142211914,-18.67500114440918,-7.981050491333008
1766015520323103200,12.294103271484374,13.31100082397461,-15.808950424194336,-6.30495023727417
1766015520332710000,12.3037099609375,9.4350004196167,-13.528950691223145,-3.573000192642212
1766015520342316500,12.313316650390625,7.753950595855713,-11.463000297546387,-0.3270000219345093
1766015520351923000,12.3229228515625,7.531050205230713,-9.33495044708252,3.7230002880096436
1766015520361529300,12.332529296875,7.012050151824951,-6.8710503578186035,8.767950057983398
1766015520371136000,12.342135986328126,4.6870503425598145,-3.3730502128601074,13.477951049804688
1766015520380742700,12.35174267578125,-0.19395001232624054,0.6630000472068787,17.043001174926758
1766015520390349000,12.36134912109375,-6.189000129699707,4.2619500160217285,18.127050399780273
1766015520399955700,12.370955810546874,-11.007000923156738,6.19605016708374,18.151050567626953
1766015520409562400,12.380562255859376,-15.052950859069824,8.629050254821777,14.265000343322754
1766015520419168800,12.390168701171875,-17.727001190185547,10.45995044708252,9.070050239562988
1766015520428775400,12.399775390625,-17.272951126098633,9.903000831604004,4.272000312805176
1766015520438382000,12.409382080078124,-14.244000434875488,8.47095012664795,-0.6330000162124634
1766015520447988500,12.418988525390626,-10.921050071716309,7.834050178527832,-4.73205041885376
1766015520457595000,12.428594970703125,-8.140950202941895,7.480050563812256,-6.327000141143799
1766015520467201800,12.438201904296875,-6.168000221252441,6.373050212860107,-5.722950458526611
1766015520476808200,12.44780810546875,-4.948950290679932,4.189949989318848,-3.643050193786621
1766015520486414600,12.45741455078125,-2.7109501361846924,1.6710001230239868,-2.0869500637054443
1766015520496021200,12.467021240234375,1.0980000495910645,-0.9660000205039978,-2.1220500469207764
1766015520505628000,12.4766279296875,6.978000164031982,-4.026000022888184,-3.621000289916992
1766015520515234300,12.486234375,13.28700065612793,-7.560000419616699,-5.257050037384033
1766015520524841000,12.495841064453124,17.06505012512207,-12.499950408935547,-3.9210002422332764
1766015520534447600,12.505447509765625,18.568950653076172,-17.57805061340332,1.927950143814087
1766015520544054000,12.515053955078125,21.12405014038086,-21.18105125427246,9.682950019836426
1766015520553660400,12.524660400390625,28.033950805664062,-22.74300193786621,14.629050254821777
1766015520563267000,12.53426708984375,38.82705307006836,-22.608001708984375,14.790000915527344
1766015520572873700,12.543873779296876,46.252052307128906,-21.100051879882812,10.995000839233398
1766015520582480100,12.553480224609375,45.39900207519531,-18.748950958251953,5.815950393676758
